Linear_Acceleration.x,Linear_Acceleration.y,Linear_Acceleration.z,Rotation_Vector.x,Rotation_Vector.y,Rotation_Vector.z,GPS.lat,GPS.long,GPS.alt
0.86422443,0.22973108,1.661541,0.012973656,0.16424851,0.8903847,13.01735501,77.56816829,857
0.3238392,0.23691773,1.6526194,0.015850034,0.16055769,0.89042646,13.01735501,77.56816829,857
-1.202685,0.23250604,0.56878567,0.015416054,0.15759557,0.88940686,13.01735501,77.56816829,857
-1.4508079,0.3311708,-0.42911243,0.012803796,0.16072197,0.88820136,13.01735501,77.56816829,857
-0.39583063,0.19402671,-1.0224619,0.01317571,0.16325974,0.88713497,13.01735501,77.56816829,857
0.06640804,0.3357463,-1.132041,0.019693766,0.1639033,0.88607395,13.01735501,77.56816829,857
-0.096135795,0.5955689,-0.69271755,0.024520718,0.16409063,0.88519526,13.01735501,77.56816829,857
-0.48968577,0.68892074,-0.2860651,0.027862493,0.16456361,0.8845089,13.01735501,77.56816829,857
-0.7175728,0.47633648,-0.37287998,0.03163723,0.16449556,0.8840563,13.01735501,77.56816829,857
-0.65342796,0.2240169,-0.716836,0.033016957,0.16402614,0.8841315,13.01735501,77.56816829,857
-0.26512057,0.03343606,-0.5903053,0.036382426,0.16188024,0.8845227,13.01735501,77.56816829,857
0.550501,-0.06906605,0.3801689,0.043095957,0.15548517,0.8856993,13.01735501,77.56816829,857
1.0448034,-0.3439536,1.1175117,0.051267877,0.14628129,0.88726175,13.01735501,77.56816829,857
0.8478795,-0.39237046,1.2137232,0.05635922,0.14049926,0.8878756,13.01735501,77.56816829,857
0.57244855,-0.4099307,1.3570156,0.05844561,0.13798693,0.8881337,13.01735501,77.56816829,857
-0.29393807,-0.45444274,1.2997341,0.06345524,0.13235167,0.88860375,13.01735501,77.56816829,857
-0.54841256,-0.5198977,0.6858635,0.06502259,0.1310864,0.8887492,13.01735501,77.56816829,857
-0.42310706,-0.42152,-0.10441685,0.070723526,0.1286464,0.889008,13.01735501,77.56816829,857
-0.13269205,-0.19171,-0.7909174,0.075673796,0.12773477,0.8890921,13.01735501,77.56816829,857
0.25634217,-0.078060865,-1.1857882,0.08119453,0.12681483,0.88900304,13.01735501,77.56816829,857
0.1649045,0.2187705,-1.3884859,0.08890362,0.12548195,0.8887784,13.01735501,77.56816829,857
-0.070458055,0.27933168,-1.4585552,0.090875566,0.1252663,0.88869756,13.01735501,77.56816829,857
-0.6218851,0.2445128,-1.3861942,0.094568186,0.12482295,0.88854754,13.01735501,77.56816829,857
-0.6305139,0.28377247,-1.1048717,0.0958318,0.12442516,0.8888506,13.01735501,77.56816829,857
-0.4438601,0.4189129,-0.9400301,0.097058326,0.12388338,0.8891789,13.01735501,77.56816829,857
-0.26771438,0.5038798,-0.84859943,0.09839173,0.12329165,0.8896273,13.01735501,77.56816829,857
-0.035272837,0.6124656,-0.39494038,0.100557804,0.12206916,0.8902665,13.01735501,77.56816829,857
0.21845973,0.610816,-0.29374027,0.102205135,0.12106279,0.8906774,13.01735501,77.56816829,857
0.49908942,0.63107467,-0.32026482,0.10392326,0.12008085,0.89092815,13.01735501,77.56816829,857
0.5421766,0.53976226,-0.5000372,0.10535809,0.11923746,0.8911563,13.01735501,77.56816829,857
0.26286036,0.389143,-0.0670681,0.1062199,0.11833972,0.8912878,13.01735501,77.56816829,857
0.18094927,0.44410157,0.28591347,0.10662268,0.11728096,0.89152193,13.01735501,77.56816829,857
-0.06243986,0.6660278,1.0534735,0.1076012,0.11591791,0.89167273,13.01735501,77.56816829,857
-0.1402148,0.49240565,0.75426865,0.10887143,0.115697816,0.8915815,13.01735501,77.56816829,857
-0.2138949,0.39097023,0.2785988,0.11038058,0.11632401,0.8914558,13.01735501,77.56816829,857
-0.020784616,0.54463124,0.004635811,0.112942465,0.11867992,0.89098215,13.01735501,77.56816829,857
0.11655104,0.555778,-1.3063498,0.11555352,0.12215529,0.89027834,13.01735501,77.56816829,857
-0.07396662,0.5038314,-1.9230003,0.11629569,0.124577284,0.88986796,13.01735501,77.56816829,857
-0.34892797,0.48268223,-2.1411076,0.11585236,0.12667502,0.8895434,13.01735501,77.56816829,857
-0.61518157,0.5432155,-1.7743073,0.114355534,0.12807539,0.889546,13.01735501,77.56816829,857
-0.9863735,0.61081815,-1.3964539,0.11225057,0.12857042,0.889766,13.01735501,77.56816829,857
-1.0551989,0.48846722,-0.87354755,0.10990883,0.1280279,0.89041984,13.01735501,77.56816829,857
-0.8611506,0.40630817,-0.1727972,0.10765326,0.12658544,0.89125556,13.01735501,77.56816829,857
-0.50673324,0.48071408,0.5566664,0.105698876,0.124832064,0.89230067,13.01735501,77.56816829,857
-0.09579128,0.3473029,1.0506334,0.10424637,0.12163396,0.8936339,13.01735501,77.56816829,857
-0.114118695,0.40577316,1.1610909,0.104320355,0.119660735,0.89445525,13.01735501,77.56816829,857
-0.4296893,0.41756725,1.0862865,0.105036184,0.118324,0.8949445,13.01735501,77.56816829,857
-0.7622061,0.3919258,0.4890766,0.10625759,0.1177469,0.8955087,13.01735501,77.56816829,857
-0.9659499,0.5198047,0.33228874,0.10808976,0.11760548,0.89584696,13.01735501,77.56816829,857
-0.83434784,0.50544405,-0.62179947,0.110477455,0.11768354,0.8963684,13.01735501,77.56816829,857
-0.78461325,0.4993441,-1.0184736,0.11552658,0.1183793,0.89779586,13.01735501,77.56816829,857
-0.7100457,0.4730804,-0.9437208,0.116229855,0.11864793,0.8987571,13.01735501,77.56816829,857
-0.5323354,0.37681532,-0.6507807,0.11671497,0.11816621,0.9002386,13.01735501,77.56816829,857
-0.38916707,0.27617908,-0.2562952,0.11678149,0.11722118,0.9014032,13.01735501,77.56816829,857
-0.38916707,0.27617908,-0.2562952,0.11678149,0.11722118,0.9014032,13.01735501,77.56816829,857
-0.14353001,0.12052965,0.4507475,0.11682145,0.115726955,0.9025189,13.01735501,77.56816829,857
0.09061301,0.14037013,1.1005077,0.117212676,0.11315734,0.9040976,13.01735501,77.56816829,857
0.10276055,0.070659876,1.1870823,0.11740241,0.11240815,0.90461004,13.01735501,77.56816829,857
-0.23455179,0.07640624,1.1481438,0.1176941,0.111316815,0.9055385,13.01735501,77.56816829,857
-0.61805975,0.087188005,0.7802124,0.11798255,0.110641785,0.9062312,13.01735501,77.56816829,857
-0.5851767,-0.071406126,0.38000393,0.1182966,0.11004499,0.90715384,13.01735501,77.56816829,857
-0.4170512,-0.063860655,0.3892641,0.11864641,0.10925162,0.90799123,13.01735501,77.56816829,857
-0.2765603,-0.013832092,0.666976,0.118798815,0.108387895,0.9090472,13.01735501,77.56816829,857
-0.4028002,-0.064100504,0.8442526,0.118669026,0.10757526,0.9100533,13.01735501,77.56816829,857
-0.57573164,-0.11523628,1.0764618,0.11813702,0.10672781,0.9115954,13.01735501,77.56816829,857
-0.60006666,-0.07749462,1.2223454,0.11795834,0.10642776,0.9127146,13.01735501,77.56816829,857
-0.46683967,-0.16229463,1.516139,0.118384846,0.10627951,0.9142955,13.01735501,77.56816829,857
-0.44165146,-0.31645942,1.3403215,0.11912967,0.10664428,0.91534597,13.01735501,77.56816829,857
-0.4465356,-0.3974681,0.72515106,0.12014032,0.10740855,0.916126,13.01735501,77.56816829,857
-0.40769494,-0.4322753,0.43379784,0.12138919,0.10902732,0.9174722,13.01735501,77.56816829,857
-0.091475844,-0.5150869,-0.1950159,0.121649854,0.11019295,0.91860545,13.01735501,77.56816829,857
-0.23193324,-0.5063684,-0.07389164,0.12126377,0.111359164,0.91968757,13.01735501,77.56816829,857
-0.15141845,-0.48352027,0.11109829,0.12032362,0.112597615,0.92094386,13.01735501,77.56816829,857
-0.070931315,-0.4521618,0.10893059,0.11893513,0.11446886,0.9226335,13.01735501,77.56816829,857
-0.08598697,-0.35004663,-0.16411495,0.118513055,0.115142755,0.92317176,13.01735501,77.56816829,857
-0.34915018,-0.44532347,-0.48926067,0.1170458,0.11708548,0.92459,13.01735501,77.56816829,857
-0.49515402,-0.5365479,-0.6500578,0.11588618,0.118160605,0.9256733,13.01735501,77.56816829,857
-0.5743222,-0.5067799,-0.707407,0.11481684,0.1188919,0.9266904,13.01735501,77.56816829,857
-0.17126858,-0.6078305,-0.31172466,0.113274254,0.11888975,0.92889714,13.01735501,77.56816829,857
-0.02256763,-0.60431767,-0.13971615,0.11300404,0.11859843,0.9294959,13.01735501,77.56816829,857
0.17473412,-0.5784991,0.27980423,0.11170594,0.11690056,0.9317394,13.01735501,77.56816829,857
-0.03289318,-0.57218766,0.5754738,0.110517405,0.11594748,0.93292207,13.01735501,77.56816829,857
-0.19665241,-0.6110089,0.9385176,0.109841615,0.115402035,0.9334598,13.01735501,77.56816829,857
-0.28095198,-0.5969262,1.355341,0.107718766,0.11368075,0.9352315,13.01735501,77.56816829,857
-0.39240384,-0.58298826,1.7920837,0.106366016,0.11267406,0.93650097,13.01735501,77.56816829,857
-0.42385495,-0.5521474,2.0795574,0.10521568,0.11209142,0.93777966,13.01735501,77.56816829,857
-0.40740156,-0.40008926,1.6261683,0.104278974,0.112565376,0.9394717,13.01735501,77.56816829,857
-0.3657881,-0.35965586,1.29461,0.10418382,0.11312412,0.94002753,13.01735501,77.56816829,857
-0.244869,-0.28108573,0.28690243,0.10428854,0.115602806,0.9414966,13.01735501,77.56816829,857
-0.08498454,-0.27548218,-0.003875732,0.104489565,0.117552176,0.9423657,13.01735501,77.56816829,857
0.0489161,-0.30112362,-0.05838394,0.10467567,0.11954051,0.9432772,13.01735501,77.56816829,857
0.115300655,-0.44101214,0.060390472,0.105006464,0.12242554,0.9444426,13.01735501,77.56816829,857
0.1557045,-0.57586336,0.17149353,0.105225585,0.124380894,0.9452204,13.01735501,77.56816829,857
0.34165215,-0.77686715,0.13236237,0.10565911,0.12633048,0.9458329,13.01735501,77.56816829,857
0.53875756,-0.9500222,-0.15172482,0.1065931,0.12939242,0.9467105,13.01735501,77.56816829,857
0.70883465,-1.0778513,-0.6402979,0.10712738,0.1314548,0.9472247,13.01735501,77.56816829,857
0.7851281,-1.1004598,-0.7232046,0.10732904,0.13244158,0.94746584,13.01735501,77.56816829,857
1.0501307,-1.1653562,-0.9914446,0.10770243,0.13503619,0.9480594,13.01735501,77.56816829,857
1.07073,-1.2211599,-1.2500858,0.10759443,0.13639036,0.9483964,13.01735501,77.56816829,857
0.9457613,-1.2966805,-1.3709536,0.106937155,0.13734703,0.94878215,13.01735501,77.56816829,857
0.7715255,-1.3419173,-1.1876621,0.10568857,0.1377772,0.94918114,13.01735501,77.56816829,857
0.5654087,-1.3127143,-0.6649618,0.1028274,0.13754922,0.9500183,13.01735501,77.56816829,857
0.5275073,-1.2939281,-0.43516064,0.101725414,0.1372593,0.9502993,13.01735501,77.56816829,857
0.5135186,-1.2237408,0.14517021,0.09824435,0.13596262,0.9512686,13.01735501,77.56816829,857
0.6508273,-1.1892164,0.7082653,0.09601575,0.1348146,0.9518618,13.01735501,77.56816829,857
0.70994604,-1.1315203,1.2073708,0.09387896,0.13371214,0.9524606,13.01735501,77.56816829,857
0.4639473,-1.0204377,1.1345005,0.09064726,0.13295893,0.953177,13.01735501,77.56816829,857
0.295815,-0.9245341,0.9141865,0.08948466,0.13304591,0.9533994,13.01735501,77.56816829,857
0.052388072,-0.7297976,0.44530582,0.08708,0.13356265,0.95374405,13.01735501,77.56816829,857
0.06267589,-0.42493725,0.035250664,0.083293475,0.13478634,0.9543576,13.01735501,77.56816829,857
0.057121456,-0.25611305,-0.15472507,0.08062278,0.13576156,0.9548249,13.01735501,77.56816829,857
-0.09271181,-0.115561485,-0.37247372,0.07630406,0.13745145,0.9554673,13.01735501,77.56816829,857
-0.16285092,-0.01017952,-0.4526024,0.07484537,0.13805614,0.95570636,13.01735501,77.56816829,857
-0.11254966,0.05229783,-0.48975563,0.07091504,0.13978948,0.95636743,13.01735501,77.56816829,857
0.022022605,0.08963895,-0.48599815,0.06878645,0.14085208,0.95681745,13.01735501,77.56816829,857
0.24085337,0.06969166,-0.605793,0.067119904,0.14185092,0.9571955,13.01735501,77.56816829,857
0.42567998,0.08125949,-0.78328705,0.065798305,0.14275803,0.9575696,13.01735501,77.56816829,857
0.46796495,0.10148835,-0.78686905,0.064603396,0.14348155,0.9578893,13.01735501,77.56816829,857
0.35024858,0.10655737,-0.3009777,0.06261765,0.14419077,0.9584434,13.01735501,77.56816829,857
0.41579205,0.049127817,0.10951042,0.06131356,0.14457788,0.9588702,13.01735501,77.56816829,857
0.6097472,-0.04567933,0.24966049,0.06041425,0.14506352,0.959085,13.01735501,77.56816829,857
0.62863463,-0.057799578,0.04374218,0.059643324,0.14593512,0.9593988,13.01735501,77.56816829,857
0.54735315,-0.04362321,-0.16925907,0.05898823,0.14712338,0.95957434,13.01735501,77.56816829,857
0.5458759,-0.07156134,-0.1489954,0.058427308,0.14850691,0.9598085,13.01735501,77.56816829,857
0.61869043,-0.048756123,-0.35004425,0.058393206,0.15088442,0.9599852,13.01735501,77.56816829,857
0.60360336,-0.023020029,-0.7169323,0.059004266,0.152635,0.96001697,13.01735501,77.56816829,857
0.72306025,-0.033599377,-1.0821466,0.060217954,0.15422736,0.95982367,13.01735501,77.56816829,857
0.81954646,-0.01666069,-1.3433971,0.061567143,0.15554242,0.95975167,13.01735501,77.56816829,857
0.8102565,-0.0618124,-1.3479319,0.063213974,0.15673794,0.95962805,13.01735501,77.56816829,857
0.81699765,-0.12174106,-1.1591282,0.06371691,0.15706392,0.95959085,13.01735501,77.56816829,857
0.8286238,-0.18295383,-0.9788971,0.06362071,0.15719023,0.95966446,13.01735501,77.56816829,857
0.83778757,-0.21778297,-0.96445465,0.063370734,0.1572165,0.959717,13.01735501,77.56816829,857
0.8358669,-0.21202564,-0.9530258,0.06193828,0.15714528,0.95991105,13.01735501,77.56816829,857
0.9691225,-0.1177752,-0.97104263,0.060682587,0.15690686,0.9600812,13.01735501,77.56816829,857
1.2701538,-0.097566605,-0.96120834,0.058812298,0.1560985,0.9604094,13.01735501,77.56816829,857
1.3833888,0.010411263,-0.7821312,0.057659697,0.15521362,0.96055496,13.01735501,77.56816829,857
1.4740014,0.08289266,-0.51431274,0.056466278,0.15414947,0.96070987,13.01735501,77.56816829,857
1.3883785,0.096690655,-0.39508057,0.055220533,0.15300395,0.9607206,13.01735501,77.56816829,857
1.1649694,0.049388885,-0.28232002,0.052788086,0.15127324,0.9606066,13.01735501,77.56816829,857
0.96424913,0.05090213,0.070236206,0.050687198,0.15020017,0.9605113,13.01735501,77.56816829,857
0.6752439,0.17230487,0.43112373,0.04950518,0.1497347,0.9604412,13.01735501,77.56816829,857
0.34560052,0.21156883,0.5175142,0.045766607,0.1487831,0.9601028,13.01735501,77.56816829,857
0.020434633,0.31011748,0.17418575,0.04267191,0.14828949,0.9596601,13.01735501,77.56816829,857
0.2025864,0.4689269,0.36420822,0.04135246,0.14776693,0.9594507,13.01735501,77.56816829,857
0.68822074,0.48843884,1.0195999,0.04084074,0.14688662,0.95924896,13.01735501,77.56816829,857
1.0589124,0.3932011,1.5177002,0.041131508,0.14581302,0.95905447,13.01735501,77.56816829,857
1.1087649,0.33004928,1.5700302,0.042058732,0.14479387,0.9587105,13.01735501,77.56816829,857
1.0019264,0.20711017,1.3206968,0.043176178,0.14397418,0.9583557,13.01733581,77.56807617,854
0.8034016,0.21085835,1.1289225,0.044237994,0.14330806,0.95794785,13.01733581,77.56807617,854
0.7087382,0.26859188,1.1954613,0.045110095,0.14265105,0.95761216,13.01733581,77.56807617,854
0.5950507,0.24663234,1.5779352,0.046139102,0.14162937,0.9571956,13.01733581,77.56807617,854
0.63521415,0.22928429,1.6449175,0.046483766,0.1413613,0.95710105,13.01733581,77.56807617,854
0.81030643,0.25645494,1.4648981,0.04813675,0.14091763,0.9567995,13.01733581,77.56807617,854
0.95117754,0.260566,1.0197372,0.05003024,0.14080276,0.9565651,13.01733581,77.56807617,854
1.0767205,0.19431233,0.595294,0.052587487,0.14050226,0.9562816,13.01733581,77.56807617,854
1.3258483,-0.031469107,0.3004427,0.055493023,0.13970184,0.9560128,13.01733581,77.56807617,854
1.9182458,-0.66697836,0.2674408,0.059929073,0.13699925,0.955558,13.01733581,77.56807617,854
2.372569,-1.0197945,0.45741463,0.062666714,0.13387899,0.9552399,13.01733581,77.56807617,854
2.406582,-0.9903896,1.1940718,0.064605966,0.1299018,0.9549013,13.01733581,77.56807617,854
1.7799863,-0.6392238,2.5538378,0.06517703,0.12351564,0.95424306,13.01733581,77.56807617,854
1.4781318,-0.5702989,2.75562,0.06470654,0.12160001,0.95398414,13.01733581,77.56807617,854
0.3019278,-0.30753732,2.556281,0.06146667,0.117438845,0.9530164,13.01733581,77.56807617,854
-0.4981887,-0.09606981,1.7351913,0.058208268,0.116305724,0.952234,13.01733581,77.56807617,854
-0.8897214,0.1859901,0.8771572,0.05474859,0.116357185,0.95129645,13.01733581,77.56807617,854
-0.8679733,0.7745805,0.25772667,0.051506642,0.11738102,0.9502093,13.01733581,77.56807617,854
-0.17254503,1.5098891,-0.6311865,0.0474366,0.12027185,0.94820935,13.01733581,77.56807617,854
0.09964824,1.5616114,-1.028409,0.0462466,0.12146385,0.9474504,13.01733581,77.56807617,854
0.28868264,1.513571,-2.439618,0.042513154,0.12528993,0.9448082,13.01733581,77.56807617,854
-0.3226541,1.567755,-3.032669,0.039233502,0.12777501,0.9428022,13.01733581,77.56807617,854
-1.1377149,1.6111457,-3.1768122,0.037245046,0.12891859,0.94176894,13.01733581,77.56807617,854
-2.5705628,1.4506154,-2.6974096,0.027329305,0.13243295,0.93766487,13.01733581,77.56807617,854
-3.2696292,1.3883574,-2.3185558,0.02453265,0.13306576,0.9366727,13.01733581,77.56807617,854
-4.7520704,1.3865108,-1.171668,0.019168638,0.1340687,0.9348099,13.01733581,77.56807617,854
-6.00626,1.7700098,0.5227127,0.013829929,0.13558027,0.93258953,13.01733581,77.56807617,854
-5.728936,2.6870053,0.57408905,0.01323541,0.13771394,0.9316319,13.01733581,77.56807617,854
-3.318734,3.6099315,0.77855206,0.014933506,0.14166838,0.9311099,13.01733581,77.56807617,854
1.5427456,3.5597315,-0.83959484,0.02079632,0.15115246,0.93044984,13.01733581,77.56807617,854
3.6141794,2.5840926,-2.7820854,0.025271326,0.15906316,0.9294223,13.01733581,77.56807617,854
3.903053,1.6383841,-4.258128,0.028714938,0.16713299,0.9276624,13.01733581,77.56807617,854
2.2716408,0.4302745,-5.0994673,0.030758828,0.17808975,0.9239189,13.01733581,77.56807617,854
-0.44794077,-0.1388948,-3.9402933,0.02992431,0.1858696,0.9198789,13.01733581,77.56807617,854
-0.44794077,-0.1388948,-3.9402933,0.02992431,0.1858696,0.9198789,13.01733581,77.56807617,854
-1.9950434,-0.2344644,-1.2914581,0.029239198,0.18964174,0.9165149,13.01733581,77.56807617,854
-1.4402442,-0.54940987,0.62991714,0.03191456,0.19056283,0.91407216,13.01733581,77.56807617,854
-1.0606716,-0.65085673,1.02073,0.03371532,0.19055897,0.9133805,13.01733581,77.56807617,854
-0.059180498,-0.626493,1.5359926,0.04146562,0.19039641,0.9113867,13.01733581,77.56807617,854
0.3811118,-0.5083754,1.444458,0.04810016,0.19032124,0.910069,13.01733581,77.56807617,854
0.50045264,-0.52109003,0.88079834,0.0588311,0.19026552,0.9080596,13.01733581,77.56807617,854
0.1276443,-0.39790106,0.46595192,0.06552846,0.19019507,0.9067478,13.01733581,77.56807617,854
-0.29511833,-0.32232308,0.21530914,0.07114583,0.19002645,0.9056968,13.01733581,77.56807617,854
-0.6800287,-0.18717217,0.10189152,0.07541559,0.18972047,0.90492386,13.01733581,77.56807617,854
-0.769933,-0.1757803,0.17343235,0.07807863,0.1892837,0.9045791,13.01733581,77.56807617,854
-0.5734926,-0.29691505,0.35956573,0.07909608,0.18871625,0.90464395,13.01733581,77.56807617,854
-0.45777842,-0.60744715,0.92945576,0.077609055,0.18777192,0.90544796,13.01733581,77.56807617,854
-0.81735134,-0.68342733,1.6223354,0.07499041,0.18728936,0.9063869,13.01733581,77.56807617,854
-1.0426357,-0.7428267,2.0861254,0.071841195,0.1871149,0.9075547,13.01733581,77.56807617,854
-1.02848,-0.68510413,2.020524,0.06900302,0.18726227,0.90879655,13.01733581,77.56807617,854
-0.65356463,-0.49150372,1.4216499,0.06626772,0.18758546,0.91075814,13.01733581,77.56807617,854
-0.28193772,-0.37309408,1.0003157,0.06549869,0.18753436,0.9120905,13.01733581,77.56807617,854
-0.08269845,-0.34964132,0.85668945,0.065370046,0.18735777,0.9127441,13.01733581,77.56807617,854
0.42582822,-0.3299036,1.1483955,0.06551152,0.18610752,0.91483366,13.01733581,77.56807617,854
0.77042437,-0.44316506,1.7178183,0.065828316,0.18484636,0.91621536,13.01733581,77.56807617,854
0.7296984,-0.5621724,2.3470068,0.066229135,0.18367025,0.91747564,13.01733581,77.56807617,854
0.16280101,-1.1132023,2.252077,0.067327484,0.18279469,0.918981,13.01733581,77.56807617,854
-0.5348902,-1.3549578,1.5946465,0.0685418,0.18302242,0.91974807,13.01733581,77.56807617,854
-0.87806076,-1.5036161,1.1044302,0.07018765,0.18368702,0.92047405,13.01733581,77.56807617,854
-0.88759416,-1.5672128,0.92580414,0.07236141,0.18460494,0.92122084,13.01733581,77.56807617,854
-0.9426358,-1.4151757,0.7709036,0.07507889,0.18583092,0.92199117,13.01733581,77.56807617,854
-1.046412,-1.0022523,0.44999695,0.07826585,0.18745029,0.9227851,13.01733581,77.56807617,854
-0.50344443,-0.5244894,-0.10460663,0.0835833,0.19042253,0.9239878,13.01733581,77.56807617,854
-0.034668565,-0.47584105,-0.59313583,0.08720634,0.1924241,0.9247819,13.01733581,77.56807617,854
0.63022876,-0.49028683,-0.7066078,0.09056642,0.19408637,0.9256262,13.01733581,77.56807617,854
0.821969,-0.55602884,-0.55605793,0.093459986,0.19528127,0.9265531,13.01733581,77.56807617,854
1.1194665,-0.7086935,-0.02592659,0.09582586,0.1961,0.9274751,13.01733581,77.56807617,854
1.1194873,-0.8985324,0.30319786,0.0978542,0.19683592,0.92829555,13.01733581,77.56807617,854
-0.26450962,-1.0553565,-0.14025402,0.10114978,0.19930866,0.929345,13.01733581,77.56807617,854
-0.8817614,-1.1508188,-0.53967285,0.10258508,0.20100091,0.9298008,13.01733581,77.56807617,854
-0.8643331,-1.0769215,-0.6839466,0.10430768,0.20259294,0.93034065,13.01733581,77.56807617,854
-0.26032138,-0.90064335,-0.78752995,0.106623285,0.20379494,0.9309491,13.01733581,77.56807617,854
0.24900985,-0.7974162,-0.7419977,0.10922136,0.20456275,0.93163687,13.01733581,77.56807617,854
0.64795905,-0.7387638,-0.7018671,0.111826405,0.20491098,0.9323864,13.01733581,77.56807617,854
0.60205853,-0.6677985,-0.64012146,0.11549107,0.20486765,0.9335328,13.01733581,77.56807617,854
0.52852213,-0.7035885,-0.64165497,0.11666427,0.20472254,0.9339094,13.01733581,77.56807617,854
0.40385497,-0.80021906,-0.9113636,0.120154254,0.20400213,0.9350111,13.01733581,77.56807617,854
0.31053638,-0.8197808,-1.0030241,0.1222393,0.20341775,0.93577945,13.01733581,77.56807617,854
-0.019546747,-0.8549886,-0.97764397,0.123921916,0.20286292,0.93658394,13.01733581,77.56807617,854
-0.27269554,-1.0007477,-1.1997099,0.12583028,0.2021005,0.93793595,13.01733581,77.56807617,854
-0.5356566,-0.8470955,-1.2454147,0.1265581,0.20191967,0.9389153,13.01733581,77.56807617,854
-0.714954,-0.69507456,-1.2155666,0.12700306,0.20195861,0.9399293,13.01733581,77.56807617,854
-0.5932609,-0.70281696,-1.1671953,0.12744182,0.20202583,0.9410057,13.01733581,77.56807617,854
-0.20018172,-0.49602747,-1.2057295,0.12842745,0.20218857,0.9426595,13.01733581,77.56807617,854
-0.044915438,-0.30067968,-1.5614929,0.12951176,0.20219973,0.9436999,13.01733581,77.56807617,854
0.109784484,-0.219172,-1.628273,0.13085033,0.20177622,0.9447654,13.01733581,77.56807617,854
0.3684696,-0.15797853,-1.5084791,0.13300192,0.20008549,0.9464857,13.01733581,77.56807617,854
0.58559954,-0.16768217,-1.301774,0.1344625,0.1981519,0.94771105,13.01733581,77.56807617,854
0.8281317,-0.17214394,-0.5280237,0.13587816,0.19556972,0.9489869,13.01733581,77.56807617,854
1.0831853,-0.20185423,0.40146637,0.13740368,0.19263314,0.95025504,13.01733581,77.56807617,854
1.2026047,-0.1927576,0.7488928,0.13933146,0.18976842,0.9513935,13.01733581,77.56807617,854
1.3906851,-0.13852215,0.76838493,0.14183146,0.18712796,0.9522868,13.01733581,77.56807617,854
1.82884,-0.053440332,0.32162094,0.14652906,0.18372525,0.9531965,13.01733581,77.56807617,854
1.8128135,0.080593586,-0.24607849,0.14994052,0.18182446,0.9535518,13.01733581,77.56807617,854
1.529958,0.22489381,-0.8049545,0.15309197,0.18006596,0.95380473,13.01733581,77.56807617,854
0.6416061,0.4160707,-1.2141037,0.15662563,0.17729078,0.95417595,13.01733581,77.56807617,854
0.37132215,0.4639287,-1.3080902,0.15747742,0.1762358,0.95434725,13.01733581,77.56807617,854
-0.06967926,0.52756,-1.345439,0.15876795,0.17377777,0.95478916,13.01733581,77.56807617,854
-0.2892418,0.569473,-0.8289442,0.15995899,0.16896357,0.9557298,13.01733581,77.56807617,854
-0.30524373,0.57344127,-0.5456896,0.16023086,0.16708975,0.9561027,13.01733581,77.56807617,854
-0.25025558,0.5600295,0.37247753,0.16094564,0.16103487,0.9572635,13.01733581,77.56807617,854
-0.22811389,0.51506495,0.6581812,0.1615854,0.15701048,0.95796525,13.01733581,77.56807617,854
-0.28090715,0.4493811,0.46825314,0.16254112,0.15322664,0.9585436,13.01733581,77.56807617,854
-0.4331739,0.36921382,-0.02166462,0.16455266,0.14785141,0.959185,13.01733581,77.56807617,854
-0.48758626,0.35299492,-0.12140846,0.1653121,0.14606515,0.9593656,13.01733581,77.56807617,854
-0.50665665,0.41171885,-0.21681023,0.1668668,0.14242075,0.959679,13.01733581,77.56807617,854
-0.29442525,0.6325581,0.16716862,0.16893248,0.13689591,0.9602018,13.01733581,77.56807617,854
-0.038237333,0.8231044,0.59121037,0.17112014,0.126502,0.9612003,13.01733581,77.56807617,854
-0.3252504,1.0761487,0.5398216,0.17024273,0.12234057,0.96172774,13.01733581,77.56807617,854
-0.4370849,1.2508411,0.4928913,0.17024273,0.12234057,0.96172774,13.01733581,77.56807617,854
-0.4921813,1.5397456,0.18758678,0.1688583,0.12008489,0.9621341,13.01733581,77.56807617,854
-0.5010581,1.8456488,-0.32229996,0.16698113,0.11812817,0.9625183,13.01733581,77.56807617,854
-0.55557895,2.1478217,-0.7514267,0.16456981,0.11633326,0.9629332,13.01733581,77.56807617,854
-0.6271992,2.4194016,-0.8408861,0.16172913,0.1144021,0.96334326,13.01733581,77.56807617,854
-0.70307493,2.588568,-0.5187063,0.15860893,0.11218698,0.9637536,13.01733581,77.56807617,854
-0.400923,2.852084,-0.28978252,0.15544349,0.109795384,0.9641277,13.01733581,77.56807617,854
0.12647533,3.0081494,-0.56587887,0.15205546,0.10732045,0.9643886,13.01733581,77.56807617,854
0.05612755,3.1352627,-0.6685629,0.14772278,0.10474203,0.9645936,13.01733581,77.56807617,854
-0.24014735,3.0845902,-0.90602493,0.13842495,0.10039482,0.96496594,13.01733581,77.56807617,854
-0.4323926,3.0797083,-0.7582331,0.12975273,0.09702715,0.96534675,13.01733581,77.56807617,854
-0.28897607,2.7609236,0.4538107,0.11259146,0.09125971,0.9661318,13.01733581,77.56807617,854
-0.24616575,2.5797944,1.0354881,0.10597345,0.08924409,0.9663714,13.01733581,77.56807617,854
-0.902534,1.7486223,3.4966698,0.08500539,0.083665974,0.9666535,13.01733581,77.56807617,854
-1.996886,1.0372244,4.279416,0.07122134,0.081305705,0.96632546,13.01733581,77.56807617,854
-3.0910296,0.39798605,3.9026089,0.058379475,0.08086499,0.965671,13.01733581,77.56807617,854
-3.7158167,-0.11290133,2.6182938,0.047005884,0.082397714,0.9648611,13.01733581,77.56807617,854
-3.1384997,-0.49101746,1.0528364,0.03376226,0.08701544,0.9638812,13.01733581,77.56807617,854
-1.4925522,-0.44760847,0.9134445,0.02861235,0.09023999,0.9635763,13.01733581,77.56807617,854
0.64623797,-0.23230791,1.6818895,0.026865354,0.09292028,0.9634732,13.01733581,77.56807617,854
2.57864,0.016663551,2.7353268,0.028195793,0.095235676,0.96332663,13.01733581,77.56807617,854
3.8643613,-0.07515931,3.598939,0.0318148,0.09766628,0.962914,13.01733581,77.56807617,854
4.252031,-1.104439,3.1651154,0.03859558,0.10305574,0.9613266,13.01733581,77.56807617,854
3.1119516,-1.8709671,2.4933653,0.04214253,0.10854757,0.9596125,13.01733581,77.56807617,854
1.1776341,-2.2517965,0.61730194,0.04433682,0.11605018,0.95754784,13.01733581,77.56807617,854
-1.350638,-2.3838751,-2.7252264,0.045472365,0.12962647,0.9542148,13.01733581,77.56807617,854
-1.7099656,-2.27803,-3.467618,0.04559749,0.13402003,0.95325553,13.01733581,77.56807617,854
-1.5162932,-1.9783032,-3.6632557,0.046070077,0.14137226,0.9516858,13.01733581,77.56807617,854
0.9985572,-1.6281013,-0.9958029,0.049301673,0.149908,0.9498698,13.01733581,77.56807617,854
1.8510208,-1.5477889,0.3889475,0.052087806,0.15215082,0.94918555,13.01733581,77.56807617,854
2.1659226,-1.5911441,0.5896511,0.05358488,0.1531814,0.948821,13.01733581,77.56807617,854
2.1307125,-1.4812427,1.0009565,0.057397492,0.15732998,0.9475397,13.01733581,77.56807617,854
1.8445596,-1.6597795,0.17266369,0.059477538,0.16132772,0.9464752,13.01733581,77.56807617,854
1.2863352,-1.6634903,-1.8180962,0.061390504,0.16597465,0.94520915,13.01733581,77.56807617,854
0.57924026,-1.5707922,-3.6004963,0.062846236,0.17007881,0.94406754,13.01733581,77.56807617,854
0.39299202,-1.5723174,-4.0103035,0.06351753,0.17244627,0.94333035,13.01733581,77.56807617,854
0.36905926,-1.7043803,-3.0278282,0.06308867,0.17282064,0.94315463,13.01733581,77.56807617,854
-0.009022042,-1.9653635,-1.5825949,0.061694063,0.17170091,0.94332254,13.01733581,77.56807617,854
-0.6379484,-2.0479088,0.49079418,0.058982268,0.16898407,0.94397056,13.01733581,77.56807617,854
-0.8019895,-1.8797727,0.9452553,0.05774059,0.16760378,0.9443557,13.01733581,77.56807617,854
-1.3888751,-1.370816,-0.71234894,0.056547854,0.16742876,0.9446842,13.01733581,77.56807617,854
-1.7004857,-1.1038175,-2.0228558,0.055333428,0.16810755,0.94499826,13.01733581,77.56807617,854
-1.701239,-0.8469136,-2.8281975,0.053638145,0.1684968,0.9454709,13.01733581,77.56807617,854
-1.6143471,-0.6413412,-2.6069775,0.051659334,0.16788408,0.9462304,13.01733581,77.56807617,854
-1.3932741,-0.45115638,-1.4189777,0.049755335,0.1661067,0.947232,13.01733581,77.56807617,854
-1.2725283,-0.37373376,-0.73395824,0.048957713,0.1649126,0.9478237,13.01733581,77.56807617,854
-0.7888848,-0.19030952,0.85912514,0.04804886,0.16091047,0.94954014,13.01733581,77.56807617,854
-0.5045368,-0.07825923,0.9834757,0.048956312,0.15852271,0.95056707,13.01733581,77.56807617,854
-0.19081925,0.024450779,0.11906147,0.052154556,0.15570438,0.9518004,13.01733581,77.56807617,854
-0.09341131,0.06762886,-0.40315628,0.054859143,0.15401787,0.95245326,13.01733581,77.56807617,854
-0.15326747,0.060523987,-0.77781105,0.056239054,0.15314619,0.9527545,13.01733581,77.56807617,854
-0.22437319,0.10724115,-0.88787365,0.06028063,0.15012963,0.9536615,13.01733581,77.56807617,854
-0.20832011,0.15660477,-0.75950336,0.06283942,0.14768702,0.95431954,13.01733581,77.56807617,854
-0.25811583,0.2614441,-0.44802475,0.0651919,0.14502792,0.95495343,13.01733581,77.56807617,854
-0.70829594,0.47908068,-0.62394524,0.06792761,0.14112586,0.9559693,13.01733581,77.56807617,854
-0.97797346,0.5904038,-0.84674644,0.06853618,0.13986772,0.9563214,13.01733581,77.56807617,854
-1.0715811,0.7237296,-1.0053854,0.06914459,0.13577768,0.9577207,13.01733581,77.56807617,854
-0.7693611,0.8582146,-0.1709919,0.06874269,0.13243641,0.95889246,13.01733581,77.56807617,854
-0.490919,0.9430735,0.34245872,0.06836121,0.1306648,0.9595832,13.01733581,77.56807617,854
0.53244394,1.2331591,1.4471645,0.067261815,0.12541023,0.9615462,13.01733581,77.56807617,854
0.8578155,1.2597985,1.631238,0.06645355,0.12098009,0.9632755,13.01733581,77.56807617,854
0.758819,1.1395447,1.5241394,0.06604239,0.11854668,0.96422714,13.01733581,77.56807617,854
0.18283641,0.74414325,1.3125038,0.0656906,0.11636806,0.9650246,13.01733581,77.56807617,854
-0.17735445,0.49116468,1.7179651,0.06516964,0.11353474,0.9662067,13.01733581,77.56807617,854
-0.27975124,0.5251868,1.7602806,0.06505322,0.11209296,0.9669475,13.01733581,77.56807617,854
-0.22757697,0.6007395,1.4031906,0.06527582,0.11107294,0.96769047,13.01733581,77.56807617,854
0.041639328,0.53492284,0.58334064,0.066253096,0.10988238,0.9687465,13.01733581,77.56807617,854
0.26996696,0.4572816,0.5851908,0.067225456,0.10887588,0.96940434,13.01733581,77.56807617,854
0.4436946,0.38907003,0.7977934,0.06839729,0.10758109,0.97006595,13.01733581,77.56807617,854
0.33203274,0.3186283,0.6649685,0.06971878,0.10610759,0.97062194,13.01733581,77.56807617,854
0.05276394,0.04177165,0.43274784,0.07089054,0.10449053,0.97119784,13.01733581,77.56807617,854
-0.37149686,-0.14162803,0.3172245,0.07170921,0.1026252,0.97176564,13.01733581,77.56807617,854
-0.70996284,-0.24955773,0.8703213,0.0714472,0.09988728,0.9728745,13.01733581,77.56807617,854
-0.6712766,-0.3516798,1.1513662,0.07040026,0.09840663,0.97371435,13.01733581,77.56807617,854
-0.24160779,-0.34699273,1.464262,0.06880669,0.09738644,0.974661,13.01733581,77.56807617,854
0.60885906,-0.3094077,1.6713924,0.06590195,0.09692009,0.97600216,13.01733581,77.56807617,854
0.9185483,-0.338367,1.6596689,0.06388109,0.09741718,0.97673297,13.01733581,77.56807617,854
0.9738584,-0.36177874,1.5726748,0.06289651,0.09790023,0.9770393,13.01733581,77.56807617,854
0.7282219,-0.43881297,1.1076183,0.06006715,0.100098915,0.9777595,13.01733581,77.56807617,854
0.15052235,-0.18014264,0.9564638,0.058233842,0.10199347,0.97809356,13.01733581,77.56807617,854
-0.31405592,0.12820554,0.8994551,0.056487463,0.104075916,0.97834796,13.01733581,77.56807617,854
-0.13761383,0.20451021,1.0282526,0.05418424,0.107212506,0.9787527,13.01733581,77.56807617,854
0.096454084,0.18653059,1.209733,0.053492635,0.10823495,0.9788862,13.01733581,77.56807617,854
0.82892025,0.08637428,1.1016912,0.05174464,0.11152105,0.9792132,13.01733581,77.56807617,854
1.1009706,0.10988951,0.61234,0.050820414,0.11393688,0.97931874,13.01733581,77.56807617,854
1.443855,0.1083076,0.35032082,0.050092917,0.11628399,0.9793624,13.01733581,77.56807617,854
1.7734611,0.035782576,0.1863432,0.049833596,0.11827207,0.9793018,13.01733581,77.56807617,854
1.7794124,-0.13778305,0.09708691,0.050072752,0.11965804,0.97918755,13.01733581,77.56807617,854
1.3869445,-0.38404727,0.3935461,0.050486777,0.12031266,0.9790416,13.01733581,77.56807617,854
0.7582851,-0.7572725,1.1508312,0.050808355,0.120316304,0.9789356,13.01733581,77.56807617,854
0.39312798,-0.92579556,1.3521414,0.050701063,0.12021631,0.97894275,13.01733581,77.56807617,854
0.3117643,-1.019182,1.4003611,0.05039196,0.120364405,0.9789926,13.01733581,77.56807617,854
0.42412686,-1.1080475,1.2337255,0.04999347,0.12100529,0.97909445,13.01733581,77.56807617,854
0.66663605,-1.0801172,0.501791,0.049691666,0.1222496,0.9791425,13.01733581,77.56807617,854
1.3834028,-0.8986211,-0.797987,0.04967889,0.12453984,0.97918516,13.01733581,77.56807617,854
1.4182171,-0.7470534,-1.0367842,0.04970236,0.12523061,0.979197,13.01733581,77.56807617,854
1.368359,-0.3134303,-0.97190857,0.049498986,0.12677026,0.97926104,13.01733581,77.56807617,854
0.91195613,-0.1297195,-0.94171906,0.049216677,0.127338,0.9792959,13.01733581,77.56807617,854
0.37329638,-0.2758882,-0.5655527,0.04831702,0.12780023,0.9794347,13.01733581,77.56807617,854
0.11272377,-0.39481258,-0.29344368,0.047540054,0.1281948,0.9795378,13.01733581,77.56807617,854
-0.35817957,-0.30266213,0.1717968,0.046917483,0.12901595,0.9796253,13.01733581,77.56807617,854
-0.65686876,-0.37634206,0.44640732,0.047278132,0.1317552,0.9795398,13.01733581,77.56807617,854
-0.65721744,-0.4170828,0.23838806,0.04791009,0.13320409,0.9794227,13.01733581,77.56807617,854
-0.60985523,-0.39488935,-0.6311197,0.050051622,0.13672942,0.97906536,13.01733581,77.56807617,854
-0.6119529,-0.030084133,-2.2055502,0.055266242,0.14229731,0.97837603,13.01733581,77.56807617,854
-0.55089295,0.08390665,-2.4301043,0.057390932,0.14381978,0.97816235,13.01733581,77.56807617,854
0.08652884,0.03366494,-1.8789053,0.06413756,0.14662583,0.9777307,13.01733581,77.56807617,854
0.54938555,-0.23216152,-1.0620155,0.068477966,0.14725143,0.9775948,13.01733581,77.56807617,854
0.5319278,-0.356498,-0.3298664,0.072341874,0.14748801,0.97749406,13.01733581,77.56807617,854
0.1410675,-0.5913236,-0.3284216,0.07714093,0.14821085,0.97728986,13.01733581,77.56807617,854
-0.15096533,-0.5879922,-0.9151306,0.079828836,0.14916307,0.9771089,13.01733581,77.56807617,854
-0.3513627,-0.49036694,-1.2664299,0.082181126,0.15021482,0.9769625,13.01733581,77.56807617,854
-0.18943143,-0.51814294,-1.4939117,0.084351875,0.15112981,0.97684145,13.01733581,77.56807617,854
-0.030476093,-0.49453497,-1.7914009,0.086349174,0.15180975,0.97677684,13.01733581,77.56807617,854
0.045321703,-0.380337,-1.839467,0.08885308,0.15214288,0.9768044,13.01733581,77.56807617,854
-0.003586888,-0.40295458,-1.738553,0.08954421,0.15205288,0.976846,13.01733581,77.56807617,854
-0.073562264,-0.5025573,-1.342699,0.0907852,0.15165277,0.97697043,13.01733581,77.56807617,854
0.035533905,-0.6126423,-0.94899845,0.09201559,0.15113668,0.97712153,13.01733581,77.56807617,854
0.073672295,-0.68463373,-0.8352518,0.09474575,0.15040281,0.97732955,13.01733581,77.56807617,854
-0.22662663,-0.47751832,-1.060277,0.09574529,0.15045087,0.9774232,13.01733581,77.56807617,854
-0.321208,-0.35382795,-1.2947149,0.096085735,0.15060243,0.97748214,13.01733581,77.56807617,854
-0.21664536,-0.17101526,-2.7698336,0.096830435,0.15089121,0.97773,13.01733581,77.56807617,854
0.6782708,-0.1937058,-2.9021158,0.097267784,0.1499194,0.9781076,13.01733581,77.56807617,854
1.8353279,-0.06564975,-2.2714558,0.09791307,0.14738634,0.97867554,13.01733581,77.56807617,854
2.5087605,0.0576396,-1.5120926,0.098567516,0.14346108,0.9793778,13.01733581,77.56807617,854
2.5637274,-0.026565313,-0.60321045,0.098956876,0.13840608,0.98016965,13.01733581,77.56807617,854
2.422566,-0.2755835,0.57138443,0.09903004,0.13255414,0.98101705,13.01733581,77.56807617,854
2.254744,-0.7114873,2.361166,0.09921204,0.12316214,0.9822128,13.01733581,77.56807617,854
2.3691592,-0.93680215,3.7816658,0.10007069,0.11448508,0.98317045,13.01733581,77.56807617,854
2.4240375,-0.9178679,4.1286917,0.10053301,0.11205928,0.9834067,13.01733581,77.56807617,854
2.2951016,-0.61849785,3.6691828,0.10243653,0.10721615,0.9838126,13.01733581,77.56807617,854
2.163908,-0.5103824,2.97538,0.103245735,0.10645051,0.98384875,13.01733581,77.56807617,854
1.8794234,-0.1791718,0.7854719,0.10612229,0.10568974,0.98375225,13.01733581,77.56807617,854
1.9473481,0.029687881,-0.097566605,0.108236775,0.105644844,0.98362064,13.01733581,77.56807617,854
2.0557785,0.22342491,-0.556839,0.11044336,0.10547578,0.98346996,13.01733581,77.56807617,854
1.920606,0.44861293,-0.38269615,0.11370435,0.10460714,0.98323995,13.01733581,77.56807617,854
1.4193482,0.45825672,0.08532047,0.115697786,0.103644766,0.98309004,13.01733581,77.56807617,854
0.8759761,0.4492941,0.66454124,0.117462926,0.10252951,0.98294455,13.01733581,77.56807617,854
0.5024893,0.48042083,0.97691345,0.11900099,0.10153395,0.9828232,13.01733581,77.56807617,854
0.38942885,0.6414759,0.9626379,0.12091097,0.10063533,0.9826384,13.01733581,77.56807617,854
0.0179317,1.1267881,0.7755375,0.121860296,0.10063813,0.9825084,13.01733581,77.56807617,854
-0.3448763,1.4828663,0.34807873,0.122571826,0.101075314,0.9823617,13.01733581,77.56807617,854
-0.6195731,1.7349973,-0.19105339,0.12348124,0.101983994,0.9821296,13.01733581,77.56807617,854
-0.63738155,1.8410988,-0.27465057,0.12380531,0.10224287,0.9820465,13.01733581,77.56807617,854
-0.7674794,2.1372209,-0.440547,0.124674976,0.10273156,0.9818227,13.01733581,77.56807617,854
-1.1438463,2.3811889,0.16470242,0.12465311,0.10278439,0.98175114,13.01733581,77.56807617,854
-1.1337936,2.3863058,0.55257225,0.12438866,0.10275128,0.9817639,13.01733581,77.56807617,854
-0.9848647,2.352865,1.0599957,0.123504944,0.102871165,0.98182374,13.01733581,77.56807617,854
-0.73509455,2.067165,0.64404774,0.12143033,0.10382621,0.98191905,13.01733581,77.56807617,854
-0.452888,1.760504,0.5899029,0.11965251,0.104684636,0.982007,13.01733581,77.56807617,854
-0.17397404,1.354465,1.212409,0.11763414,0.105546676,0.98211455,13.01733581,77.56807617,854
0.6621356,0.67404604,1.6598358,0.114686474,0.10714452,0.9822607,13.01733581,77.56807617,854
0.8655478,0.5571475,1.9447403,0.1139647,0.10766975,0.98226815,13.01733581,77.56807617,854
1.5519533,0.30517983,2.5538578,0.112778924,0.109525494,0.982123,13.01733581,77.56807617,854
2.3757832,-0.2703464,3.0605974,0.11259307,0.11145438,0.9818426,13.01733581,77.56807617,854
2.3513565,-0.39747715,2.8955765,0.11256231,0.11276626,0.9816336,13.01733581,77.56807617,854
1.6012962,-0.66932654,2.007142,0.11212551,0.11834927,0.98082197,13.01733581,77.56807617,854
1.0963209,-0.87059355,1.0840588,0.11140815,0.1233694,0.9801524,13.01733581,77.56807617,854
0.7984896,-1.302563,-0.59479237,0.11016833,0.13178827,0.9790924,13.01733581,77.56807617,854
0.7522689,-1.4512112,-1.376606,0.109435484,0.13714899,0.9784304,13.01733581,77.56807617,854
0.8016168,-1.5622382,-1.6802692,0.10854265,0.14212061,0.9778837,13.01733581,77.56807617,854
0.756356,-1.67732,-1.8593969,0.1075867,0.1467911,0.9773587,13.01733581,77.56807617,854
0.52392006,-1.8297274,-1.9974785,0.106774464,0.1512541,0.9768541,13.01733581,77.56807617,854
0.6171869,-1.9971585,-1.3888865,0.10628585,0.15565076,0.9762983,13.01733581,77.56807617,854
0.6544074,-2.06689,-1.475956,0.10622912,0.16052547,0.975569,13.01733581,77.56807617,854
0.22768378,-2.0754573,-2.3424397,0.10635668,0.16614638,0.97460675,13.01733581,77.56807617,854
-0.78810465,-1.6474164,-3.7916384,0.10647506,0.17218192,0.9734882,13.01733581,77.56807617,854
-1.4069045,-1.2224305,-5.8866816,0.106567055,0.17975503,0.9719867,13.01733581,77.56807617,854
-1.1317548,-0.9471321,-6.77802,0.106006406,0.18249802,0.97143275,13.01733581,77.56807617,854
-0.8613969,-0.833467,-6.2524834,0.10438345,0.1826493,0.97144544,13.01733581,77.56807617,854
-0.66667974,-0.890769,-3.789256,0.10148118,0.18016568,0.9720616,13.01733581,77.56807617,854
-0.68233943,-0.7955942,-0.068748474,0.095706046,0.17374884,0.9735303,13.01733581,77.56807617,854
-0.9366528,-0.9397764,0.5682068,0.091820054,0.16929057,0.97445816,13.01733581,77.56807617,854
-1.0330805,-0.91387916,0.08364773,0.08806912,0.16512883,0.975307,13.01733581,77.56807617,854
-0.82167244,-0.66128826,-0.4921999,0.08438831,0.16080065,0.97615916,13.01733581,77.56807617,854
-0.6052729,-0.49107504,-0.6015053,0.08054122,0.15585855,0.977135,13.01733581,77.56807617,854
-0.42590034,0.012402058,0.23757362,0.074181885,0.14709179,0.97878915,13.01733581,77.56807617,854
0.035956383,0.4419105,1.9077377,0.06995878,0.14061874,0.9799494,13.01733581,77.56807617,854
0.27079052,0.70527554,2.748577,0.06629235,0.13448946,0.98092824,13.01733581,77.56807617,854
-0.015413046,0.8354974,2.4108372,0.06325673,0.12919128,0.98170304,13.01733581,77.56807617,854
-0.78060615,0.80574465,0.588706,0.059085164,0.12183502,0.9827298,13.01733581,77.56807617,854
-0.92063713,0.7380333,0.2037983,0.05489101,0.11611487,0.9836646,13.01733581,77.56807617,854
-1.0615699,0.27718353,0.6791487,0.0484793,0.10909122,0.9849841,13.01733581,77.56807617,854
-0.36179054,-0.18591094,1.5255575,0.040194076,0.100637294,0.9865638,13.01733581,77.56807617,854
0.3867167,-0.30768645,2.342476,0.03074005,0.091129996,0.9882251,13.01733581,77.56807617,854
0.5221554,-0.29882407,2.4013205,0.020950288,0.08133224,0.9896985,13.01733581,77.56807617,854
0.28659445,-0.414598,1.7458153,0.011462009,0.07166761,0.9909472,13.01733581,77.56807617,854
-0.21817581,-0.5289278,2.2326956,-0.001566218,0.05751153,0.99237496,13.01733581,77.56807617,854
-0.22860152,-0.598528,3.0154228,-0.008953713,0.04883803,0.9931039,13.01733581,77.56807617,854
0.060759574,-0.85429657,3.4434204,-0.014684025,0.041484553,0.9936434,13.01733581,77.56807617,854
0.9648687,-1.139334,3.1627073,-0.018417578,0.03565675,0.99410886,13.01733581,77.56807617,854
1.7075576,-1.2741811,2.2883692,-0.020824146,0.031145977,0.9944714,13.01733581,77.56807617,854
1.3318489,-1.0853988,0.558156,-0.025148174,0.025587115,0.99486625,13.01733581,77.56807617,854
1.0448251,-0.91175556,0.7139406,-0.030141134,0.02183142,0.99503046,13.01733581,77.56807617,854
1.0714608,-0.7093845,1.7341194,-0.03647447,0.018174166,0.9951024,13.01733581,77.56807617,854
1.5794961,-0.56308043,2.6195717,-0.042634726,0.015244705,0.99513555,13.01733581,77.56807617,854
2.2095726,-0.3773077,2.7058687,-0.047429014,0.013654883,0.99513096,13.01733581,77.56807617,854
2.4892945,-0.007862791,1.5058594,-0.05120106,0.014205339,0.99514085,13.01733581,77.56807617,854
1.9845833,0.21445759,0.40807533,-0.05177363,0.016112635,0.9951524,13.01733581,77.56807617,854
0.9630413,0.17718452,-0.08296394,-0.051254947,0.018624645,0.99520236,13.01733581,77.56807617,854
1.0723612,0.42020622,-1.1972342,-0.04950858,0.02155031,0.99529654,13.01733581,77.56807617,854
1.4071548,0.5763589,-2.569912,-0.047626566,0.024441855,0.9953974,13.01733581,77.56807617,854
1.5799601,0.5176753,-4.172653,-0.046640046,0.026453197,0.99547064,13.01733581,77.56807617,854
1.8234324,0.6412417,-3.2121458,-0.047491558,0.0251903,0.9955021,13.01733581,77.56807617,854
2.1587126,0.7986686,-1.640748,-0.0492926,0.022283815,0.9955359,13.01733581,77.56807617,854
2.1322641,0.93925476,-0.09189415,-0.051626727,0.018678697,0.99549794,13.01733581,77.56807617,854
1.7767886,0.90729904,1.2248821,-0.053634,0.015185544,0.99543977,13.01733581,77.56807617,854
1.4908836,0.78115547,0.8266239,-0.054211702,0.011430977,0.9953718,13.01733581,77.56807617,854
1.2510548,0.827104,-0.58727074,-0.05320232,0.009971045,0.99537104,13.01733581,77.56807617,854
1.0861409,0.6374915,-2.6417723,-0.051544324,0.008561759,0.99536026,13.01733581,77.56807617,854
1.0673158,0.3719512,-4.2471867,-0.049827855,0.005970378,0.9953624,13.01733581,77.56807617,854
1.1406045,0.03814427,-4.22139,-0.048847098,0.001268661,0.99530315,13.01733581,77.56807617,854
1.2501558,-0.31179708,-2.8220034,-0.049171858,-0.005590919,0.9951739,13.01733581,77.56807617,854
0.38229448,-0.4467483,1.6480885,-0.052432545,-0.017674709,0.99472916,13.01733581,77.56807617,854
0.067577004,-0.6133348,3.7195835,-0.055077538,-0.024426568,0.99436456,13.01733581,77.56807617,854
0.4151441,-0.6206956,3.8205767,-0.05630605,-0.028666316,0.9941306,13.01733581,77.56807617,854
1.0057232,-0.5304076,2.4781265,-0.05528585,-0.030454185,0.9940513,13.01733581,77.56807617,854
1.3880332,-0.5410449,0.49079323,-0.05244528,-0.03073672,0.9940946,13.01733581,77.56807617,854
1.4533706,-0.54719156,-1.1163702,-0.047437347,-0.030540712,0.99411875,13.01733581,77.56807617,854
1.3233606,-0.5195794,-1.6560154,-0.04590134,-0.030729944,0.99410385,13.01733581,77.56807617,854
0.7526599,-0.27385962,-1.7675371,-0.042355962,-0.032415215,0.99390316,13.01733581,77.56807617,854
0.3518958,-0.3144998,-1.351923,-0.041154847,-0.034470696,0.99369746,13.01733581,77.56807617,854
0.004655123,-0.3942259,-0.61338425,-0.040636655,-0.037030827,0.9934299,13.01733581,77.56807617,854
-0.02391094,-0.56676406,1.246047,-0.039893858,-0.04109606,0.9930764,13.01733581,77.56807617,854
0.23226124,-0.7217271,2.1890297,-0.038850546,-0.04314322,0.9929199,13.01733581,77.56807617,854
0.30175328,-0.70429045,2.1027365,-0.037224635,-0.04389016,0.99281305,13.01733581,77.56807617,854
0.43090123,-0.5863701,0.75444126,-0.035034962,-0.043388467,0.9927777,13.01733581,77.56807617,854
0.59895664,-0.45535547,-0.64267826,-0.03292249,-0.04237804,0.9927567,13.01733581,77.56807617,854
0.6571344,-0.30187905,-1.034421,-0.03162553,-0.0417106,0.99270165,13.01733581,77.56807617,854
0.36319184,-0.07726848,-0.46234417,-0.03144062,-0.041896332,0.9925402,13.01733581,77.56807617,854
0.3782518,-0.001181245,0.12828827,-0.031687208,-0.042653136,0.9924197,13.01733581,77.56807617,854
0.36092955,0.0317685,0.86549187,-0.031460963,-0.043637376,0.9923052,13.01733581,77.56807617,854
0.29586917,-0.07657403,1.7532778,-0.030563913,-0.044443265,0.9922374,13.01733581,77.56807617,854
0.072230786,-0.22148305,2.6964493,-0.027712941,-0.04436356,0.99226713,13.01733581,77.56807617,854
-0.18887138,-0.19807917,2.1082592,-0.02499325,-0.042888056,0.9923687,13.01733581,77.56807617,854
-0.3423521,-0.13691938,0.57649803,-0.022211296,-0.04046787,0.9925482,13.01733581,77.56807617,854
-0.30800715,0.0366655,-0.51978683,-0.020075621,-0.037832975,0.9927214,13.01733581,77.56807617,854
-0.21412668,0.27512228,-0.7944803,-0.01875226,-0.03555744,0.99289304,13.01733581,77.56807617,854
-0.28458288,0.689525,-0.76708794,-0.017483758,-0.033061,0.9930615,13.01733581,77.56807617,854
-0.278012,0.75068176,-0.8508816,-0.016445486,-0.0319781,0.99314415,13.01733581,77.56807617,854
-0.21784298,0.45881253,-0.41380692,-0.014933988,-0.03150778,0.9931705,13.01733581,77.56807617,854
0.025497302,0.13297266,0.32830524,-0.012728589,-0.031618267,0.9931898,13.01733581,77.56807617,854
0.09418146,-0.15834355,1.466567,-0.010342652,-0.031881057,0.99316096,13.01733581,77.56807617,854
-0.12973596,-0.51419395,1.8579674,-0.006556877,-0.031623244,0.9931497,13.01733581,77.56807617,854
0.08256165,-0.57860976,1.4459829,-0.003408624,-0.030906087,0.99317926,13.01733581,77.56807617,854
0.49290866,-0.5794946,0.936203,2.31E-04,-0.029978005,0.99323034,13.01733581,77.56807617,854
0.6031556,-0.4900297,0.81693363,0.003860266,-0.028927524,0.99326366,13.01733581,77.56807617,854
0.32695228,-0.3241232,0.43169785,0.006982557,-0.027660308,0.9932886,13.01733581,77.56807617,854
-0.15232974,0.06737697,-0.4256916,0.010078551,-0.025352687,0.99332976,13.01733581,77.56807617,854
-0.41859978,0.2981686,-0.94203186,0.01088157,-0.023660125,0.993375,13.01733581,77.56807617,854
-0.506606,0.2838227,-1.062357,0.010798932,-0.022033859,0.993439,13.01733581,77.56807617,854
-0.4600439,0.19583032,-0.9588947,0.010585773,-0.02130628,0.9934755,13.01733581,77.56807617,854
0.24348319,-0.2392214,-0.13936138,0.010269195,-0.01952627,0.99359417,13.01733581,77.56807617,854
1.2848132,-0.72014296,0.6731262,0.011697378,-0.018043682,0.9936354,13.01733581,77.56807617,854
1.4430307,-0.8537221,0.9364786,0.012568639,-0.017522119,0.99363256,13.01733581,77.56807617,854
1.3312602,-0.915552,1.6337318,0.015507137,-0.015281831,0.9935148,13.01733581,77.56807617,854
0.7609745,-0.8568196,1.3045855,0.017050028,-0.012752839,0.99342054,13.01733581,77.56807617,854
0.31931132,-0.827509,0.53800297,0.017883966,-0.00931772,0.9933433,13.01733581,77.56807617,854
0.12579429,-0.5783047,-1.0549307,0.018205568,-0.003116467,0.99329686,13.01733581,77.56807617,854
0.029539138,-0.3087544,-2.0000849,0.017897723,0.001095326,0.99330676,13.01733581,77.56807617,854
-0.037947983,-0.17583385,-2.107051,0.01756623,0.003027209,0.9933083,13.01733581,77.56807617,854
-0.38493675,-0.03718193,-1.6200399,0.016028062,0.007992584,0.99331945,13.01733581,77.56807617,854
-0.5328778,-0.21611731,-0.90816975,0.01513795,0.010543374,0.9933054,13.01733581,77.56807617,854
-0.3916068,-0.48730376,0.40423393,0.015260095,0.013435073,0.9932312,13.01733581,77.56807617,854
-0.18546742,-0.47424904,0.4640131,0.01650127,0.015217053,0.99312884,13.01733581,77.56807617,854
-0.2218861,-0.45093608,0.11065292,0.01731032,0.016132336,0.9930751,13.01733581,77.56807617,854
-0.4843757,-0.45015284,-1.0734196,0.01932164,0.018572262,0.9928743,13.01733581,77.56807617,854
-0.38845065,-0.34297886,-1.6843634,0.019688608,0.019539854,0.9927983,13.01733581,77.56807617,854
-0.09073141,-0.3780877,-1.4890842,0.018921157,0.01968767,0.99276507,13.01733581,77.56807617,854
-0.14386177,-0.44746158,-1.1062746,0.01699747,0.019020664,0.9927835,13.01733581,77.56807617,854
-0.6021217,-0.5994179,0.37597752,0.012873292,0.017139284,0.9928508,13.01733581,77.56807617,854
-0.9115173,-0.7842158,0.9442568,0.010266444,0.01587218,0.99289924,13.01733581,77.56807617,854
-1.0137569,-0.82852733,1.5351849,0.008386571,0.014865656,0.99297076,13.01733581,77.56807617,854
-0.87390804,-0.925242,2.1518974,0.007292224,0.014484413,0.99309623,13.01733581,77.56807617,854
-0.764005,-0.9315264,1.9162979,0.007328859,0.014801576,0.99316823,13.01733581,77.56807617,854
-0.027522042,-1.0462171,0.8545046,0.007910532,0.01677551,0.99332696,13.01733581,77.56807617,854
0.27595332,-1.0263085,0.9960699,0.007966611,0.018569648,0.9934437,13.01733581,77.56807617,854
0.2234214,-0.8959099,1.238306,0.007540049,0.020793537,0.9935465,13.01733581,77.56807617,854
-2.48E-04,-0.58203727,0.35965443,0.006958213,0.023550585,0.99365216,13.01733581,77.56807617,854
-0.010132939,-0.2950681,-0.034056664,0.006109293,0.028240906,0.9937576,13.01733581,77.56807617,854
-0.12962058,-0.09543443,-0.38093662,0.005529359,0.031533174,0.99379647,13.01733581,77.56807617,854
-0.26296282,-0.002120674,-0.9398203,0.0048881,0.034824435,0.99381167,13.01733581,77.56807617,854
-0.2324093,-0.02850318,-1.2929306,0.004186998,0.037820064,0.99381685,13.01733581,77.56807617,854
0.007982796,-0.23802733,-1.3929653,0.003465047,0.040237688,0.99382645,13.01733581,77.56807617,854
0.4004733,-0.43631655,-0.72301483,0.002343825,0.04255099,0.9938648,13.01733581,77.56807617,854
0.52739966,-0.5680378,-0.16823864,0.001723151,0.043385286,0.9939037,13.01733581,77.56807617,854
0.50104195,-0.5853607,0.74135685,0.001391783,0.043931477,0.993929,13.01733581,77.56807617,854
0.5201544,-0.52268046,1.1756372,0.001627509,0.044607427,0.9939426,13.01733581,77.56807617,854
0.57963085,-0.2684983,0.39309978,0.003049332,0.046238013,0.9939001,13.01733581,77.56807617,854
0.49538136,-0.16711968,-0.053871155,0.003535763,0.046882153,0.9938658,13.01733581,77.56807617,854
-0.22421995,0.2087214,-0.7126789,0.003942352,0.04869272,0.99377114,13.01733581,77.56807617,854
-0.5443283,0.4425195,-0.81078815,0.00339222,0.049658444,0.993724,13.01733581,77.56807617,854
-0.37519765,0.6899757,-0.9963808,0.002550702,0.050415743,0.99371386,13.01733581,77.56807617,854
0.12635624,0.800908,-1.4879723,0.001569272,0.05088691,0.99373156,13.01733581,77.56807617,854
0.32359964,0.7763846,-1.554698,-3.52E-04,0.05046312,0.9937998,13.01733581,77.56807617,854
0.20643853,0.7543882,-1.1072674,-0.001116485,0.04995568,0.99382675,13.01733581,77.56807617,854
-0.46586257,0.6769552,0.81122875,-0.003132333,0.047955863,0.99389416,13.01733581,77.56807617,854
-0.91561145,0.5248576,1.1936512,-0.003718104,0.04699351,0.9939044,13.01733581,77.56807617,854
-0.8834338,0.28747928,0.38009548,-0.00337242,0.04657184,0.9938999,13.01733581,77.56807617,854
-0.5356214,0.04822755,-0.4787836,-0.002391514,0.046254206,0.9939035,13.01733581,77.56807617,854
-0.39729872,-0.1379677,-0.36756134,-0.001486065,0.045617912,0.9939488,13.01733581,77.56807617,854
-0.38574913,-0.19086456,0.037932396,-0.001047149,0.044694938,0.9940132,13.01733581,77.56807617,854
-0.081184,-0.3941819,0.33721352,-9.64E-04,0.04307457,0.9941672,13.01733581,77.56807617,854
0.3009601,-0.5422514,0.4127903,-8.16E-04,0.041900296,0.9942826,13.01733581,77.56807617,854
0.57284534,-0.6150671,0.617959,-6.21E-04,0.040759422,0.9943831,13.01733581,77.56807617,854
0.4880852,-0.61602163,0.90193176,-5.56E-04,0.0398727,0.99446946,13.01733581,77.56807617,854
0.32664114,-0.64024943,1.1328268,-4.98E-04,0.039501395,0.99453485,13.01733581,77.56807617,854
0.27936098,-0.59455645,0.4124565,3.11E-04,0.040376756,0.99459606,13.01733581,77.56807617,854
0.3486607,-0.5030973,-0.9123888,0.00128107,0.041793484,0.994601,13.01733581,77.56807617,854
0.31551886,-0.45082378,-1.2667904,0.002173325,0.043324165,0.994599,13.01733581,77.56807617,854
0.16502732,-0.39379215,-1.0912123,0.00298816,0.044731792,0.9946046,13.01733581,77.56807617,854
0.1859233,-0.4108014,-0.16222286,0.004684561,0.046861965,0.99463,13.01733581,77.56807617,854
0.19868003,-0.3875807,-0.028116226,0.00550016,0.047713324,0.99461997,13.01733581,77.56807617,854
0.2315242,-0.17856932,-0.3460636,0.008594485,0.05086284,0.9945241,13.01733581,77.56807617,854
0.041715063,-0.004141331,-1.0512562,0.010787136,0.053147685,0.9944013,13.01733581,77.56807617,854
0.103919014,-0.13267851,-1.6513319,0.012676378,0.055047117,0.9942822,13.01733581,77.56807617,854
0.77440447,-0.47686577,-1.8061056,0.014850981,0.056054354,0.99414986,13.01733581,77.56807617,854
1.4295139,-0.6354866,-1.0391941,0.015774356,0.0552147,0.99413085,13.01733581,77.56807617,854
1.6284047,-0.7627286,-1.0632763,0.016025277,0.05444503,0.9941317,13.01733581,77.56807617,854
1.561322,-0.6819539,0.6073065,0.014955514,0.051268227,0.99411684,13.01733581,77.56807617,854
1.3049686,-0.4794901,0.7957134,0.013854113,0.04924645,0.9940524,13.01733581,77.56807617,854
1.0393697,-0.49288332,-0.022895813,0.013205616,0.04751656,0.9939245,13.01733581,77.56807617,854
0.99926054,-0.45280886,-0.2354021,0.012449276,0.044800974,0.99365205,13.01733581,77.56807617,854
0.7331849,-0.4832617,0.42292213,0.012174483,0.042647257,0.99340194,13.01733581,77.56807617,854
0.35943797,-0.70109534,1.4919968,0.012667018,0.040307693,0.9931076,13.01733581,77.56807617,854
0.09800804,-1.1422393,2.2477465,0.014532996,0.038106285,0.9927242,13.01733581,77.56807617,854
-0.07766104,-1.5284307,2.353919,0.018035494,0.036438167,0.99225485,13.01733581,77.56807617,854
0.5592235,-2.0967374,1.8012066,0.022840124,0.0355756,0.9916811,13.01733581,77.56807617,854
0.88975835,-1.1998295,0.8998699,0.029010676,0.037120365,0.99048334,13.01733581,77.56807617,854
0.08843568,-0.33231562,0.17329407,0.03079025,0.040255927,0.9895054,13.01733581,77.56807617,854
-0.6835397,-0.27714884,-0.7207165,0.032374036,0.04568351,0.9880936,13.01733581,77.56807617,854
-0.5633226,-0.68812096,-0.6940975,0.03396097,0.048413165,0.9873955,13.01733581,77.56807617,854
-0.4006086,-0.5196631,-0.109023094,0.035738643,0.050283413,0.9869714,13.01733581,77.56807617,854
0.15295565,-0.4127462,0.38223267,0.037183214,0.051819872,0.98674995,13.01733581,77.56807617,854
0.2595734,-0.37705314,0.037182808,0.0379049,0.05366205,0.98659295,13.01733581,77.56807617,854
0.10321462,-0.6916275,-0.72874355,0.037725702,0.055935092,0.98643744,13.01733581,77.56807617,854
0.6524356,-1.0356737,-0.8973818,0.03695008,0.05811537,0.98624295,13.01733581,77.56807617,854
1.4572005,-1.1051701,-0.54007244,0.03624353,0.05995471,0.98586,13.01733581,77.56807617,854
1.9199954,-1.3244399,-0.24406147,0.036498047,0.059752867,0.9855471,13.01733581,77.56807617,854
1.8480439,-1.3366967,0.42925167,0.037123624,0.05851034,0.9851923,13.01733581,77.56807617,854
0.7172806,-0.86160004,0.77948284,0.03852347,0.055818625,0.98454946,13.01733581,77.56807617,854
0.060454965,-0.37185252,0.38357162,0.03929916,0.054282565,0.9841023,13.01733581,77.56807617,854
-0.48960662,-0.08368862,0.026322365,0.039536722,0.053091947,0.983708,13.01733581,77.56807617,854
-0.76693773,-0.27619934,0.090699196,0.03938859,0.051867932,0.98345375,13.01733581,77.56807617,854
-0.8968901,-0.42883992,0.7639322,0.039190065,0.050457954,0.9833038,13.01733581,77.56807617,854
-0.85134757,-0.5480013,1.1452122,0.03910836,0.049291965,0.9832442,13.01725087,77.56804174,852
-0.62252027,-0.16481149,0.18769169,0.03902513,0.048966117,0.9831986,13.01725087,77.56804174,852
-0.65411675,-0.03463769,-0.2815771,0.038839564,0.049205713,0.9832107,13.01725087,77.56804174,852
-0.736901,-0.09252703,-0.96931267,0.037548363,0.049978938,0.9832923,13.01725087,77.56804174,852
-0.5031989,-0.3967172,-0.527998,0.036446087,0.04997255,0.98335826,13.01725087,77.56804174,852
-0.08402443,-0.8198302,0.80342865,0.035310697,0.049297284,0.98347247,13.01725087,77.56804174,852
-0.4725148,-0.3420291,1.2101164,0.034592863,0.049458407,0.98348325,13.01725087,77.56804174,852
-0.7589927,0.23888612,0.5038204,0.03331027,0.050926033,0.9834727,13.01725087,77.56804174,852
-0.75386655,0.36200023,-0.85861015,0.03127404,0.053539317,0.98350155,13.01725087,77.56804174,852
-0.34817055,-0.07598066,-2.1469946,0.028413147,0.05662559,0.9836297,13.01725087,77.56804174,852
-0.070002556,0.25303686,-1.8929005,0.018644217,0.06275731,0.98422223,13.01725087,77.56804174,852
-0.20008427,0.26716053,-2.0566225,0.015536752,0.063699976,0.984439,13.01725087,77.56804174,852
-0.18668017,0.16135442,-2.0373936,0.014502524,0.06369653,0.9845335,13.01725087,77.56804174,852
-0.20986667,0.024466276,-1.6678753,0.013823085,0.06334828,0.98462796,13.01725087,77.56804174,852
-0.451469,-0.25285995,-0.2136631,0.013560949,0.06170197,0.9847622,13.01725087,77.56804174,852
-0.8164569,-1.0435524,0.90220165,0.015168297,0.057943944,0.98494756,13.01725087,77.56804174,852
-0.8103982,-1.2549539,1.2228079,0.016509786,0.05532637,0.9851198,13.01725087,77.56804174,852
-0.23763673,-1.3077534,1.9427986,0.01781167,0.052807584,0.9853627,13.01725087,77.56804174,852
0.63031375,-1.0982363,2.094823,0.018991537,0.050679438,0.9856632,13.01725087,77.56804174,852
1.130413,-0.86021936,1.8997202,0.019426567,0.04921836,0.9859651,13.01725087,77.56804174,852
1.494505,-1.0619997,2.3885384,0.018061414,0.048092004,0.9864039,13.01725087,77.56804174,852
0.8174425,-0.899922,2.7259674,0.016619219,0.048118506,0.9866041,13.01725087,77.56804174,852
0.360658,-0.6631093,2.3950129,0.015917316,0.04908003,0.98672384,13.01725087,77.56804174,852
0.3140458,-0.47293675,1.293354,0.016401386,0.05100695,0.9867849,13.01725087,77.56804174,852
0.5419692,-0.2056526,-0.9461651,0.018534523,0.054633163,0.9868213,13.01725087,77.56804174,852
0.59726495,-0.241974,-1.6013918,0.019598573,0.056442205,0.9868749,13.01725087,77.56804174,852
0.58590996,-0.3345759,-0.5969124,0.019746382,0.057241604,0.98699796,13.01725087,77.56804174,852
0.7589705,-0.24878359,0.8489227,0.01947828,0.057521053,0.9871298,13.01725087,77.56804174,852
0.7585591,-0.12164855,1.2847776,0.019153345,0.05822571,0.9872132,13.01725087,77.56804174,852
0.549435,-0.18319249,0.63090706,0.01900431,0.05983922,0.9871957,13.01725087,77.56804174,852
0.2021478,-0.22334671,-0.53250027,0.019318877,0.062026776,0.9870996,13.01725087,77.56804174,852
-0.22868378,-0.14471161,-1.4019699,0.020366488,0.065014005,0.9869161,13.01725087,77.56804174,852
-0.032062396,-0.32711148,-1.705781,0.021123534,0.066285595,0.98683095,13.01725087,77.56804174,852
0.05409096,-0.471457,-1.461709,0.02192659,0.066728644,0.98680353,13.01725087,77.56804174,852
-0.2973802,-0.41568065,-0.6011381,0.022757137,0.06646253,0.9868081,13.01725087,77.56804174,852
-0.53427184,-0.37957728,0.08186054,0.023580648,0.06608767,0.98682964,13.01725087,77.56804174,852
-0.42823607,-0.44680393,-1.1311378,0.024908487,0.0660528,0.98691124,13.01725087,77.56804174,852
-0.40176898,-0.3950827,-1.4864779,0.025377482,0.06588895,0.98703706,13.01725087,77.56804174,852
-0.23687375,-0.47057426,-1.4444466,0.025650185,0.06427664,0.98734844,13.01725087,77.56804174,852
-0.26668423,-0.46352196,-0.8204069,0.025486331,0.062208172,0.9876482,13.01725087,77.56804174,852
-0.37902874,-0.31463468,-0.07846069,0.025154844,0.059688915,0.98799294,13.01725087,77.56804174,852
-0.5591284,-0.1344198,0.08584976,0.024797615,0.057160378,0.988344,13.01725087,77.56804174,852
-0.7069275,-0.024258494,-0.13218975,0.023966335,0.053673163,0.9889196,13.01725087,77.56804174,852
-0.68471235,-0.09478903,-0.065423965,0.023141507,0.051468965,0.98934036,13.01725087,77.56804174,852
-0.5881219,-0.14770961,-0.07622337,0.022702498,0.05038819,0.98956645,13.01725087,77.56804174,852
0.5581284,-0.35687095,-0.39975166,0.020784711,0.045752283,0.99056906,13.01725087,77.56804174,852
1.0040116,-0.3226692,0.09208107,0.019503057,0.043056976,0.99108773,13.01725087,77.56804174,852
1.1143007,-0.26471913,0.39460278,0.018826958,0.04165451,0.99132895,13.01725087,77.56804174,852
0.9070612,0.08810121,1.1206942,0.01650584,0.038018245,0.99196553,13.01725087,77.56804174,852
0.57630557,0.08255398,1.3527603,0.014795232,0.0363974,0.9923185,13.01725087,77.56804174,852
0.3530951,-0.048644423,1.0632763,0.013243214,0.035427924,0.99263024,13.01725087,77.56804174,852
0.44351244,-0.25999737,0.32030106,0.011733234,0.035035335,0.99291813,13.01725087,77.56804174,852
0.4731975,-0.33206558,-0.71091557,0.010114869,0.034756076,0.9931548,13.01725087,77.56804174,852
0.117250204,-0.16049957,-1.510314,0.007232921,0.033121772,0.99351424,13.01725087,77.56804174,852
-0.016984344,-0.11109561,-1.0940914,0.005123133,0.030771587,0.9937852,13.01725087,77.56804174,852
0.022988625,-0.138048,-0.320405,0.003147243,0.027613832,0.99407303,13.01725087,77.56804174,852
0.4100399,-0.3163153,0.58652115,0.001344971,0.023962347,0.9943771,13.01725087,77.56804174,852
0.820857,-0.78890574,2.00103,-9.47E-04,0.018099906,0.99478984,13.01725087,77.56804174,852
0.8956481,-0.97855437,2.2998466,-0.00160585,0.016255701,0.9949202,13.01725087,77.56804174,852
1.411982,-1.464582,2.8794727,-0.003372263,0.01190999,0.9952571,13.01725087,77.56804174,852
1.5699655,-1.5296139,2.9007063,-0.003864722,0.010991215,0.9953552,13.01725087,77.56804174,852
2.119563,-1.1554365,1.8826342,-0.004734508,0.010103375,0.99555063,13.01725087,77.56804174,852
1.7284636,-0.6347707,0.89571476,-0.005017229,0.010890567,0.9955887,13.01725087,77.56804174,852
1.3689492,-0.21385925,-0.0691452,-0.005011416,0.012988275,0.99553764,13.01725087,77.56804174,852
1.39725,-0.22692358,-0.40886402,-0.004800996,0.013666694,0.9955072,13.01725087,77.56804174,852
1.151167,-0.31029716,-1.2906971,-0.004073781,0.014993999,0.9953526,13.01725087,77.56804174,852
0.7164408,-0.44764686,-1.1277475,-0.004860451,0.015041458,0.9951714,13.01725087,77.56804174,852
0.17952792,-0.31581432,-0.73013496,-0.009169859,0.014136726,0.9949613,13.01725087,77.56804174,852
0.1352341,-0.18697515,-0.750288,-0.010592664,0.013939268,0.99491894,13.01725087,77.56804174,852
0.3997167,-0.120195895,-0.7640238,-0.013585112,0.013544522,0.99483,13.01725087,77.56804174,852
0.6803804,-0.2076656,-0.6440077,-0.016425917,0.01294162,0.9947507,13.01725087,77.56804174,852
1.1313636,-0.36510953,0.14340019,-0.01876016,0.012001678,0.9946456,13.01725087,77.56804174,852
1.2590007,-0.4001336,1.7777948,-0.02048771,0.010482501,0.99445736,13.01725087,77.56804174,852
0.9323857,-0.37297422,2.1744785,-0.020203747,0.010111409,0.99426645,13.01725087,77.56804174,852
0.35761058,-0.38947308,1.7889452,-0.0190762,0.010598366,0.99406165,13.01725087,77.56804174,852
-0.3341094,-0.35352987,0.46269512,-0.016812747,0.012609554,0.99372375,13.01725087,77.56804174,852
-0.49025145,-0.46570593,-0.278224,-0.015481215,0.014002054,0.9935336,13.01725087,77.56804174,852
-0.4189889,-0.56067073,-0.78846645,-0.014510528,0.014639132,0.9933909,13.01725087,77.56804174,852
-0.4497909,-0.63697934,-0.5847788,-0.014323087,0.014192808,0.9932841,13.01725087,77.56804174,852
-0.38694796,-0.7483226,1.1439953,-0.015756087,0.012037066,0.993259,13.01725087,77.56804174,852
-0.29955566,-0.4823048,2.1228895,-0.017128786,0.010650632,0.9932401,13.01725087,77.56804174,852
-0.14858222,-0.39029574,2.3891191,-0.018046537,0.010085857,0.99324226,13.01725087,77.56804174,852
0.034110725,-0.4487874,1.1523991,-0.017658625,0.01128086,0.99322426,13.01725087,77.56804174,852
0.2912649,-0.49685636,0.2349987,-0.016431222,0.013071785,0.9932143,13.01725087,77.56804174,852
0.4980854,-0.37817138,-0.2821865,-0.014724193,0.015063816,0.9932146,13.01725087,77.56804174,852
0.2905842,-0.24172488,-0.3360796,-0.012949832,0.017004458,0.9931641,13.01725087,77.56804174,852
-0.15647411,-0.076078296,-0.31015778,-0.011420283,0.018884996,0.99312454,13.01725087,77.56804174,852
-0.39971304,-0.08730024,-0.28754425,-0.010243374,0.02073102,0.993062,13.01725087,77.56804174,852
-0.5499111,-0.41440895,0.045295715,-0.00919413,0.023581779,0.99306554,13.01725087,77.56804174,852
-0.6729024,-0.41345787,-0.025220871,-0.008597055,0.025839943,0.99308354,13.01725087,77.56804174,852
0.5800824,-0.2305901,-1.3305426,-0.00623983,0.030674476,0.99324656,13.01725087,77.56804174,852
0.8967087,-0.23816693,-1.4306288,-0.005538833,0.031655267,0.9932856,13.01725087,77.56804174,852
1.1096878,-0.40180516,-1.0781202,-0.004201117,0.03314231,0.9933212,13.01725087,77.56804174,852
0.945039,-0.5755776,-0.3847599,-0.003036638,0.0340964,0.99333125,13.01725087,77.56804174,852
0.6163095,-0.6563512,0.40172958,-0.002082351,0.03490545,0.9932979,13.01725087,77.56804174,852
0.40505895,-0.6337684,0.90705967,-0.001200129,0.035971362,0.99325866,13.01725087,77.56804174,852
0.15595552,-0.5260957,0.95128727,-3.05E-04,0.03757999,0.99317634,13.01725087,77.56804174,852
-0.14831094,-0.21740091,-0.50726414,6.84E-04,0.041086596,0.9930968,13.01725087,77.56804174,852
0.20445406,-0.29962975,-1.182394,6.95E-04,0.043739427,0.9930489,13.01725087,77.56804174,852
0.22072288,-0.31847322,-1.1185169,3.62E-04,0.046403382,0.99301803,13.01725087,77.56804174,852
0.24982136,-0.23738074,-1.1995802,5.90E-04,0.0495698,0.99294233,13.01725087,77.56804174,852
0.19404224,-0.27991122,-1.2306347,7.28E-04,0.050330408,0.9929298,13.01725087,77.56804174,852
-0.107159674,-0.21059489,-1.4206572,6.95E-04,0.051461108,0.99288756,13.01725087,77.56804174,852
-0.26780728,-0.3108003,-1.2989483,-3.54E-04,0.051891446,0.99287,13.01725087,77.56804174,852
-0.34769684,-0.29292393,-1.1064968,-0.001171089,0.05118509,0.9929465,13.01725087,77.56804174,852
-0.06368397,-0.5020819,-0.46230316,-0.001603219,0.04975822,0.99305385,13.01725087,77.56804174,852
-0.18334879,-0.52419996,0.20345879,-0.002067206,0.047138378,0.99317265,13.01725087,77.56804174,852
-0.4505807,-0.58355945,1.243207,-0.002618693,0.04578172,0.9932193,13.01725087,77.56804174,852
-0.64034075,-0.5620574,1.7305021,-0.00251441,0.04507798,0.99326944,13.01725087,77.56804174,852
-0.5661449,-0.55396366,1.6649218,-0.00206405,0.04503368,0.99328905,13.01725087,77.56804174,852
-0.5661449,-0.55396366,1.6649218,-0.00206405,0.04503368,0.99328905,13.01725087,77.56804174,852
-0.5661449,-0.55396366,1.6649218,-0.00206405,0.04503368,0.99328905,13.01725087,77.56804174,852
-0.5661449,-0.55396366,1.6649218,-0.00206405,0.04503368,0.99328905,13.01725087,77.56804174,852
-0.5661449,-0.55396366,1.6649218,-0.00206405,0.04503368,0.99328905,13.01725087,77.56804174,852
-0.40468895,-0.4753548,-0.906188,-7.74E-04,0.0525615,0.99331427,13.01725087,77.56804174,852
-0.40468895,-0.4753548,-0.906188,-7.74E-04,0.0525615,0.99331427,13.01725087,77.56804174,852
-0.40468895,-0.4753548,-0.906188,-7.74E-04,0.0525615,0.99331427,13.01725087,77.56804174,852
-0.40468895,-0.4753548,-0.906188,-7.74E-04,0.0525615,0.99331427,13.01725087,77.56804174,852
-0.40468895,-0.4753548,-0.906188,-7.74E-04,0.0525615,0.99331427,13.01725087,77.56804174,852
-0.40468895,-0.4753548,-0.906188,-7.74E-04,0.0525615,0.99331427,13.01725087,77.56804174,852
-0.40468895,-0.4753548,-0.906188,-7.74E-04,0.0525615,0.99331427,13.01725087,77.56804174,852
-0.3233955,-0.8134135,0.6743679,-7.78E-04,0.054482363,0.99314386,13.01725087,77.56804174,852
-0.3233955,-0.8134135,0.6743679,-7.78E-04,0.054482363,0.99314386,13.01725087,77.56804174,852
-0.3233955,-0.8134135,0.6743679,-7.78E-04,0.054482363,0.99314386,13.01725087,77.56804174,852
-0.3233955,-0.8134135,0.6743679,-7.78E-04,0.054482363,0.99314386,13.01725087,77.56804174,852
-0.3233955,-0.8134135,0.6743679,-7.78E-04,0.054482363,0.99314386,13.01725087,77.56804174,852
-0.3233955,-0.8134135,0.6743679,-7.78E-04,0.054482363,0.99314386,13.01725087,77.56804174,852
-0.7548263,-0.62162626,-0.30540752,-4.39E-05,0.061447654,0.99240327,13.01725087,77.56804174,852
-0.7548263,-0.62162626,-0.30540752,-4.39E-05,0.061447654,0.99240327,13.01725087,77.56804174,852
-0.7548263,-0.62162626,-0.30540752,-4.39E-05,0.061447654,0.99240327,13.01725087,77.56804174,852
-0.7548263,-0.62162626,-0.30540752,-4.39E-05,0.061447654,0.99240327,13.01725087,77.56804174,852
-0.7548263,-0.62162626,-0.30540752,-4.39E-05,0.061447654,0.99240327,13.01725087,77.56804174,852
0.71886873,-0.23818457,0.40394688,-0.00216466,0.06452757,0.99263513,13.01725087,77.56804174,852
0.71886873,-0.23818457,0.40394688,-0.00216466,0.06452757,0.99263513,13.01725087,77.56804174,852
0.34996435,-0.45744634,0.11208153,0.001673117,0.06431007,0.9927149,13.01725087,77.56804174,852
0.2226013,-0.5709212,-0.088661194,0.002795332,0.064336404,0.9927215,13.01725087,77.56804174,852
-0.051330425,-0.62595403,-0.55237484,0.005361728,0.064422466,0.99271315,13.01725087,77.56804174,852
-0.19362736,-0.33223403,-0.22823524,0.005605893,0.06435542,0.99274164,13.01725087,77.56804174,852
-0.32662088,-0.19861555,0.22088242,0.004553421,0.06436005,0.9928211,13.01725087,77.56804174,852
-0.46903843,-0.25700843,0.61521626,0.003334947,0.06464462,0.9928862,13.01725087,77.56804174,852
-0.33633912,-0.25703573,0.6263275,0.002782235,0.06539389,0.99296963,13.01725087,77.56804174,852
-0.17126918,-0.17034936,0.21604061,0.00330943,0.06672177,0.99298394,13.01725087,77.56804174,852
0.009857019,-0.058393598,-0.8820915,0.004863991,0.06851243,0.9929417,13.01725087,77.56804174,852
0.12651291,0.10479748,-1.1302967,0.008571867,0.07086604,0.9927915,13.01725087,77.56804174,852
0.17314093,0.10511339,-1.155653,0.011081457,0.07158173,0.9926951,13.01725087,77.56804174,852
-0.07984906,0.08393562,-1.1347036,0.012655529,0.071614474,0.9926531,13.01725087,77.56804174,852
-0.31988227,0.13160455,-1.0674286,0.013100574,0.07089134,0.9926684,13.01725087,77.56804174,852
-0.3151744,0.012139916,-0.8410015,0.012936408,0.07022906,0.99271023,13.01725087,77.56804174,852
0.2751018,-0.41253996,0.36016083,0.010873002,0.06579974,0.99301314,13.01725087,77.56804174,852
0.6618596,-0.63677406,1.2990417,0.009831633,0.0630713,0.9932008,13.01725087,77.56804174,852
0.7210355,-0.64087284,1.6691732,0.00946456,0.061827317,0.99323845,13.01725087,77.56804174,852
0.30988485,-0.25804698,2.1726742,0.008991871,0.05937682,0.9933599,13.01725087,77.56804174,852
0.0735058,-0.038015127,1.3795004,0.009329081,0.05920716,0.9933324,13.01725087,77.56804174,852
0.050842054,0.042854905,0.003286362,0.010085001,0.059920423,0.993256,13.01725087,77.56804174,852
0.21182826,-0.06549752,-1.0991468,0.011001503,0.060641754,0.9931775,13.01725087,77.56804174,852
0.43845773,-0.24562562,-0.83197594,0.011786329,0.06054588,0.99314886,13.01725087,77.56804174,852
0.28699017,-0.38337767,1.0416203,0.01251689,0.058990877,0.993186,13.01725087,77.56804174,852
-0.058803126,-0.45805287,1.6620159,0.012738295,0.058106594,0.9932081,13.01725087,77.56804174,852
-0.3089773,-0.5067806,1.2634535,0.012888347,0.05799022,0.9931918,13.01725087,77.56804174,852
-0.21900076,-0.64496195,0.44612408,0.013136515,0.058412716,0.9931611,13.01725087,77.56804174,852
0.25338537,-0.73935616,0.13286304,0.013528213,0.05882528,0.99314857,13.01725087,77.56804174,852
0.69610196,-0.7569941,0.67067623,0.013970143,0.05903681,0.9931596,13.01725087,77.56804174,852
0.63863623,-0.6876502,1.3985605,0.014545284,0.059366014,0.9931435,13.01725087,77.56804174,852
0.3557503,-0.58006334,1.6535931,0.015440657,0.06030513,0.9930886,13.01725087,77.56804174,852
0.001221344,-0.39675522,0.8841591,0.016581489,0.062224045,0.99296457,13.01725087,77.56804174,852
-0.15758139,-0.09063721,-1.0902672,0.018196264,0.06633609,0.992723,13.01725087,77.56804174,852
-0.002324313,0.08728278,-1.9371662,0.018915717,0.068815514,0.99260277,13.01725087,77.56804174,852
0.47168615,0.12549281,-2.1159048,0.0192176,0.07043681,0.99255514,13.01725087,77.56804174,852
0.94405174,0.12967527,-1.690135,0.019187367,0.071094096,0.9925543,13.01725087,77.56804174,852
1.072259,0.106818676,-1.3713446,0.019106647,0.071091555,0.99257624,13.01725087,77.56804174,852
1.0356822,-0.29043734,-0.26352787,0.019139001,0.06955187,0.9926097,13.01725087,77.56804174,852
0.9964578,-0.5626639,-0.13048458,0.01949473,0.068239816,0.9925941,13.01725087,77.56804174,852
0.9112579,-0.65204537,-0.108223915,0.019623917,0.06749263,0.9925853,13.01725087,77.56804174,852
0.5231218,-0.61261094,0.8133707,0.01927836,0.065039605,0.9925998,13.01725087,77.56804174,852
0.189176,-0.39446044,1.5574121,0.018502427,0.06375085,0.9926416,13.01725087,77.56804174,852
0.04103811,-0.27752113,1.7021046,0.017793305,0.06338033,0.99264103,13.01725087,77.56804174,852
0.007325292,0.17215896,0.48436356,0.017556649,0.06422295,0.9925858,13.01725087,77.56804174,852
0.30796766,0.38889873,-0.9693117,0.018193554,0.06725039,0.9924235,13.01725087,77.56804174,852
0.49106854,0.4893372,-1.6077099,0.018521953,0.068344496,0.99234855,13.01725087,77.56804174,852
0.7561229,0.5956651,-2.217782,0.019096093,0.07060264,0.9921935,13.01725087,77.56804174,852
0.65624833,0.58074415,-1.4672594,0.019035388,0.07090816,0.9921321,13.01725087,77.56804174,852
0.5444305,0.47262108,-0.53569126,0.01888548,0.07045354,0.99209046,13.01725087,77.56804174,852
0.43700036,0.27839208,-0.04100132,0.018778177,0.0696401,0.99207217,13.01725087,77.56804174,852
0.3876888,0.17621589,0.19201946,0.018717552,0.06916671,0.9920499,13.01725087,77.56804174,852
0.4113639,-0.07683277,0.8393259,0.018362451,0.067590386,0.9920047,13.01725087,77.56804174,852
0.33261734,-0.275262,1.2338467,0.017218709,0.06626311,0.99192816,13.01725087,77.56804174,852
0.22094585,-0.28534544,1.3137903,0.016582897,0.06600474,0.99192417,13.01725087,77.56804174,852
-0.118829295,-0.2613424,1.06808,0.014447523,0.06597615,0.99181855,13.01725087,77.56804174,852
-0.08294598,-0.21404254,0.76230335,0.013248643,0.066551395,0.9917577,13.01725087,77.56804174,852
0.1840037,-0.13665974,0.4632349,0.012610552,0.06746316,0.9916602,13.01725087,77.56804174,852
0.16910839,-0.18929625,0.032710075,0.012611082,0.06914787,0.99149495,13.01725087,77.56804174,852
0.07280122,-0.21653736,-0.04759693,0.0128102,0.06969533,0.9914249,13.01725087,77.56804174,852
-0.117604986,-0.38058758,-0.17038918,0.013308359,0.07069249,0.99132484,13.01725087,77.56804174,852
-0.23787172,-0.46730983,-0.2838049,0.013730753,0.07150839,0.99122137,13.01725087,77.56804174,852
-0.20166774,-0.38864815,-0.41058254,0.01360738,0.07247942,0.99120367,13.01725087,77.56804174,852
0.14388043,-0.15537512,-0.4889164,0.013074864,0.073022574,0.991264,13.01725087,77.56804174,852
0.39784208,0.11199081,-0.7740402,0.0123708,0.07352559,0.9913033,13.01725087,77.56804174,852
0.47047463,0.21848321,-0.96392536,0.01196542,0.07376759,0.9913233,13.01725087,77.56804174,852
0.61066204,0.43389046,-1.66677,0.010714757,0.07425646,0.9914047,13.01725087,77.56804174,852
0.61267895,0.4163146,-2.0460024,0.010005998,0.074073486,0.99147457,13.01725087,77.56804174,852
0.63562614,0.21797788,-1.8430834,0.009562562,0.07314919,0.99154174,13.01725087,77.56804174,852
0.935356,-0.077088594,-0.34491444,0.009680391,0.07047542,0.9917342,13.01725087,77.56804174,852
0.81091255,-0.08429444,0.67192364,0.01020581,0.06855934,0.9918172,13.01725087,77.56804174,852
0.44044557,-0.028391838,1.025321,0.010805434,0.06723105,0.99188584,13.01725087,77.56804174,852
0.27229324,0.01051867,0.5883875,0.011452981,0.06668393,0.99186003,13.01725087,77.56804174,852
0.3522265,-0.09374964,-0.053299904,0.011945953,0.066663936,0.9918226,13.01725087,77.56804174,852
0.47245502,-0.22915423,-0.25234222,0.012144663,0.06671336,0.99176085,13.01725087,77.56804174,852
0.262184,-0.23592281,-0.06803322,0.011940115,0.06659247,0.99174875,13.01725087,77.56804174,852
-0.2567631,-0.29504943,0.22577953,0.011088311,0.06617997,0.9916997,13.01725087,77.56804174,852
-0.6587269,-0.32793117,0.31294537,0.010426356,0.06596751,0.99163836,13.01725087,77.56804174,852
-0.7951542,-0.32468128,0.3321085,0.010194859,0.06591442,0.9916069,13.01725087,77.56804174,852
-0.71161544,-0.40546036,0.34202003,0.010157371,0.06585152,0.9916332,13.01725087,77.56804174,852
-0.25085992,-0.5046427,0.71319675,0.011428881,0.06568895,0.99163866,13.01725087,77.56804174,852
-0.03976258,-0.6353097,0.80372334,0.012790698,0.06571732,0.99156934,13.01725087,77.56804174,852
-0.11053161,-0.69873714,0.6461468,0.013919663,0.06598149,0.9915566,13.01725087,77.56804174,852
-0.3426455,-0.76367974,0.7298584,0.014438833,0.06638926,0.99148816,13.01725087,77.56804174,852
-0.8607798,-0.6234932,1.0685511,0.014253085,0.0669001,0.99148965,13.01725087,77.56804174,852
-1.2156073,-0.5087526,1.3267956,0.013209716,0.06809305,0.99147254,13.01725087,77.56804174,852
-1.4374572,-0.5526072,1.3785448,0.012653975,0.0694722,0.99156165,13.01725087,77.56804174,852
-1.2216586,-0.7018981,1.1293135,0.013101951,0.071364515,0.99158597,13.01725087,77.56804174,852
-0.7872071,-0.67849755,0.60290337,0.014830621,0.07376588,0.99161357,13.01725087,77.56804174,852
-0.34932476,-0.36803257,0.016630173,0.017773436,0.07653305,0.99156183,13.01725087,77.56804174,852
-4.82E-04,0.03836572,-0.6347456,0.021494605,0.07945698,0.99148273,13.01725087,77.56804174,852
0.46154946,0.33842576,-1.4452229,0.025421605,0.08228347,0.99133,13.01725087,77.56804174,852
0.7762104,0.49249458,-2.0166836,0.028714756,0.084671475,0.99118406,13.01725087,77.56804174,852
0.48547986,0.5743246,-2.0867424,0.030777944,0.08626428,0.9910233,13.01725087,77.56804174,852
-0.748999,0.71556187,-1.4173727,0.031300284,0.08722856,0.99092406,13.01725087,77.56804174,852
-1.1763487,0.7508676,-0.96136284,0.03066473,0.087265335,0.99100506,13.01725087,77.56804174,852
-0.99251866,0.6293478,-0.95129776,0.030151444,0.086984776,0.9911381,13.01725087,77.56804174,852
-0.5720389,0.4854622,-0.9143801,0.029974962,0.08636161,0.9913733,13.01725087,77.56804174,852
-0.35015035,0.5499337,-0.5360031,0.030300673,0.08533679,0.99160045,13.01725087,77.56804174,852
-0.27060097,0.69293463,-0.2524805,0.031261846,0.084059656,0.9918374,13.01725087,77.56804174,852
-0.062962145,0.7486234,0.16484547,0.033031646,0.08262608,0.9920001,13.01725087,77.56804174,852
0.10049254,0.7052016,0.5606642,0.03558465,0.08113051,0.9921058,13.01725087,77.56804174,852
-0.19238657,0.5294522,0.66744995,0.03997818,0.07915476,0.99206793,13.01725087,77.56804174,852
-0.90561247,0.4194945,0.052998543,0.042125408,0.07811308,0.9920445,13.01725087,77.56804174,852
-1.34431,0.20153522,-0.34104156,0.042940497,0.07695847,0.9920662,13.01725087,77.56804174,852
-1.333149,-0.010851979,-0.0991745,0.042503987,0.07537347,0.99223435,13.01725087,77.56804174,852
-1.1099244,-0.10905719,0.29484367,0.04199731,0.07437563,0.9923485,13.01725087,77.56804174,852
-0.24900264,-0.25412488,2.3176508,0.040184792,0.07118725,0.9927784,13.01725087,77.56804174,852
0.037566364,-0.37860215,3.0285387,0.03965711,0.06982895,0.9929912,13.01725087,77.56804174,852
-0.10305029,-0.53531873,2.726038,0.040042114,0.06982103,0.9931041,13.01725087,77.56804174,852
-0.47348619,-0.49017155,1.5684624,0.04133283,0.07130264,0.9930343,13.01725087,77.56804174,852
-0.78280354,-0.13069415,0.21667385,0.043072276,0.07393586,0.9928486,13.01725087,77.56804174,852
-0.85881424,0.41771996,-1.7705526,0.04495613,0.07880887,0.9924815,13.01725087,77.56804174,852
-0.7966594,0.5152755,-2.7781792,0.044798523,0.08179305,0.99229103,13.01725087,77.56804174,852
-0.87712836,0.48430896,-3.1365232,0.043304212,0.08387693,0.9922372,13.01725087,77.56804174,852
-1.2779961,0.44657803,-2.9518795,0.040656213,0.08469055,0.9923095,13.01725087,77.56804174,852
-1.5498343,0.49263132,-2.084527,0.037382398,0.084154844,0.99253494,13.01725087,77.56804174,852
-1.603137,0.58591855,-0.81940746,0.034635674,0.08239986,0.9928087,13.01725087,77.56804174,852
-0.92391133,0.5258721,0.7789717,0.033286016,0.079978384,0.9930679,13.01725087,77.56804174,852
0.55913293,0.13491368,2.352332,0.03395135,0.07773076,0.99322677,13.01725087,77.56804174,852
1.6703422,-0.23836112,2.7980747,0.03695502,0.07641007,0.99314076,13.01725087,77.56804174,852
2.1413097,-0.46359026,0.62005615,0.044104673,0.07640978,0.9926136,13.01725087,77.56804174,852
1.6501861,-0.41348028,-1.8079395,0.048099432,0.07698527,0.9921416,13.01725087,77.56804174,852
0.7535893,-0.36133885,-3.376194,0.04959485,0.076931104,0.99178064,13.01725087,77.56804174,852
-0.2891701,-0.39863896,-3.0887642,0.048165984,0.07559497,0.9916967,13.01725087,77.56804174,852
-0.8734566,-0.5167483,-1.6023283,0.04501565,0.072996326,0.99181664,13.01725087,77.56804174,852
-0.99573445,-0.65017855,0.32737827,0.04187056,0.06969478,0.9920707,13.01725087,77.56804174,852
-0.839499,-0.7393813,2.235385,0.04007789,0.06663846,0.99230736,13.01725087,77.56804174,852
-0.66654205,-0.8086697,2.502574,0.040213145,0.06498072,0.9924372,13.01725087,77.56804174,852
-0.53027534,-0.9134748,1.0933132,0.04206574,0.06524114,0.99240834,13.01725087,77.56804174,852
-0.46374184,-0.78965557,-0.9490614,0.045091942,0.0667863,0.99223673,13.01725087,77.56804174,852
-0.93021655,0.3821839,-2.4169092,0.049960963,0.068708695,0.99185187,13.01725087,77.56804174,852
-1.0994258,0.6118572,-1.1963329,0.052313976,0.06844946,0.9917121,13.01725087,77.56804174,852
-0.43789208,-0.13499296,0.882658,0.05398797,0.06707443,0.99171203,13.01725087,77.56804174,852
-0.5996895,-0.24332702,2.0574799,0.05533016,0.06572857,0.99175733,13.01725087,77.56804174,852
-0.83143854,-0.15506458,1.9577541,0.056570332,0.065194674,0.99178094,13.01725087,77.56804174,852
-0.88012373,-0.02261269,1.324543,0.057741024,0.065517,0.99180603,13.01725087,77.56804174,852
-0.71244454,0.442603,-0.8586674,0.059781704,0.06695717,0.9917935,13.01725087,77.56804174,852
-0.64709103,0.5579065,-1.6726809,0.060511757,0.067360625,0.9917886,13.01725087,77.56804174,852
-0.3559941,0.70353603,-2.409688,0.061825868,0.06741676,0.99182636,13.01725087,77.56804174,852
0.033169627,0.5868567,-1.022193,0.06331447,0.06497085,0.99201816,13.01725087,77.56804174,852
-0.042536616,0.4245032,0.47432613,0.06415287,0.062214304,0.99217856,13.01725087,77.56804174,852
-0.34655607,0.29674256,1.387908,0.06519419,0.0594121,0.9922904,13.01725087,77.56804174,852
-0.80142486,0.25090992,1.448514,0.066564515,0.05710137,0.9923319,13.01725087,77.56804174,852
-0.9307116,0.32305777,1.1222858,0.06736649,0.05617681,0.99232984,13.01725087,77.56804174,852
-0.98133147,0.62463164,-0.3977089,0.06931368,0.053947642,0.99235296,13.01725087,77.56804174,852
-0.84900177,0.63560534,-0.19616318,0.06935263,0.051178407,0.9925826,13.01725087,77.56804174,852
-0.24167585,0.5765953,1.2598753,0.068731196,0.04875181,0.9928401,13.01725087,77.56804174,852
0.14322889,0.44887578,2.5427113,0.06824994,0.04646978,0.99306804,13.01725087,77.56804174,852
0.21565127,0.41495287,3.016841,0.06820744,0.04501379,0.9932204,13.01725087,77.56804174,852
0.52582216,0.38170063,2.6398716,0.06865094,0.04465383,0.99324757,13.01725087,77.56804174,852
0.6600764,0.27029252,1.6282253,0.069202445,0.045176886,0.99319345,13.01725087,77.56804174,852
0.51738024,-0.025433302,0.8421211,0.06911521,0.045990296,0.99311113,13.01725087,77.56804174,852
-0.0424304,-0.2595005,0.7676811,0.06770799,0.046586685,0.9931018,13.01725087,77.56804174,852
-0.9377179,-0.348109,1.4444933,0.06487098,0.04683248,0.99319303,13.01725087,77.56804174,852
-1.569477,-0.42911482,1.9650278,0.061334655,0.046865717,0.993368,13.01725087,77.56804174,852
-1.3645815,-0.61597884,2.3669891,0.056743924,0.046749886,0.9936862,13.01725087,77.56804174,852
-0.481516,-0.82023895,3.1683445,0.055281438,0.04662671,0.9938705,13.01725087,77.56804174,852
0.11090851,-1.0058852,3.6367235,0.05520106,0.046650812,0.99393225,13.01725087,77.56804174,852
1.3997335,-1.270205,4.1666937,0.056920297,0.048329953,0.99392396,13.01725087,77.56804174,852
1.4830798,-1.0261941,3.1402807,0.05877959,0.05173474,0.99371976,13.01725087,77.56804174,852
1.1383848,-0.718155,0.92708683,0.06056465,0.056983367,0.9933694,13.01725087,77.56804174,852
0.34174109,-0.47214925,-1.994112,0.061863456,0.06305976,0.9929473,13.01725087,77.56804174,852
-0.39038885,-0.3376379,-4.0617514,0.062056128,0.06851543,0.992593,13.01725087,77.56804174,852
-0.69939804,-0.15937388,-3.5733824,0.05992758,0.07370392,0.9924392,13.01725087,77.56804174,852
-0.38673317,-0.14337921,-2.048027,0.05794621,0.07531643,0.99251807,13.01725087,77.56804174,852
-0.21145928,-0.14106143,-1.1856108,0.05707106,0.07585433,0.9925687,13.01725087,77.56804174,852
-0.12389064,-0.27239954,0.23105049,0.055613477,0.07776024,0.9925992,13.01725087,77.56804174,852
-0.27118188,-0.429101,-0.14170647,0.055840712,0.07988328,0.99245185,13.01725087,77.56804174,852
-0.19805759,-0.574602,-1.0975866,0.05691845,0.082523696,0.9921992,13.01725087,77.56804174,852
-0.09037161,-0.5899688,-1.8183775,0.058297172,0.08511675,0.9919168,13.01725087,77.56804174,852
0.31066775,-0.68897045,-1.9197302,0.05924898,0.08720981,0.99168545,13.01725087,77.56804174,852
0.65844643,-0.9629247,-1.6927767,0.05922107,0.0887102,0.9915502,13.01725087,77.56804174,852
0.22774976,-0.8798015,-1.2432165,0.056665115,0.09006031,0.9915544,13.01725087,77.56804174,852
0.19173902,-0.9689882,-0.06768322,0.05354293,0.09043031,0.9916672,13.01725087,77.56804174,852
-0.14556694,-0.907621,0.790431,0.050015785,0.09082817,0.99179614,13.01725087,77.56804174,852
-0.69008213,-0.8786439,1.1019297,0.046711814,0.09170303,0.9918605,13.01725087,77.56804174,852
-0.8438342,-0.90547466,1.1145496,0.045317996,0.092372976,0.9918604,13.01725087,77.56804174,852
-0.8040572,-0.90137434,0.38080502,0.04272447,0.09533637,0.9917091,13.01725087,77.56804174,852
-0.57518905,-0.77862465,-0.40571022,0.0423295,0.09776361,0.99151045,13.01725087,77.56804174,852
-0.24010777,-0.6407018,-1.218071,0.042469706,0.100166924,0.9912908,13.01725087,77.56804174,852
0.18593752,-0.4909947,-1.7548943,0.04255802,0.10225978,0.9910999,13.01725087,77.56804174,852
0.5811248,-0.22289205,-2.387208,0.04174517,0.10424213,0.99093276,13.01725087,77.56804174,852
0.46663398,-0.19350171,-2.324216,0.0399412,0.10448564,0.99096423,13.01725087,77.56804174,852
0.30484104,-0.19441319,-1.8758421,0.036978107,0.1038228,0.99111503,13.01725087,77.56804174,852
0.1094417,-0.13298702,-1.0689535,0.0331695,0.10242027,0.9913504,13.01725087,77.56804174,852
0.26839128,-0.058495283,0.23780823,0.029044975,0.10067954,0.99161476,13.01725087,77.56804174,852
0.45304707,0.009030342,1.0155325,0.025222192,0.09910296,0.99182403,13.01725087,77.56804174,852
0.7048794,-0.04502809,0.9926033,0.022246044,0.09811545,0.99190986,13.01725087,77.56804174,852
0.56811255,-0.016642451,-0.10030365,0.0199443,0.09752236,0.99181813,13.01725087,77.56804174,852
0.46491057,-0.051646948,-0.7154074,0.019742548,0.09692449,0.9917158,13.01725087,77.56804174,852
0.5291778,-0.06859493,-0.5449009,0.01991897,0.095666714,0.99163675,13.01725087,77.56804174,852
0.59766024,-0.12252462,0.36378002,0.019838955,0.093846455,0.99159324,13.01725087,77.56804174,852
0.34499964,-0.23047662,1.6578226,0.019416824,0.09200327,0.9915253,13.01725087,77.56804174,852
-0.20201255,-0.12114549,2.45016,0.019255083,0.09085984,0.99137765,13.01725087,77.56804174,852
-0.3071893,-0.022403121,2.0133839,0.02086285,0.09135977,0.99094474,13.01725087,77.56804174,852
0.2281385,-0.045986295,0.8094206,0.023143975,0.09314162,0.99053925,13.01725087,77.56804174,852
0.5058881,-0.028774142,-0.6498213,0.025632763,0.095545754,0.9900603,13.01725087,77.56804174,852
0.36226124,0.001376867,-1.7911882,0.027605407,0.097823314,0.9895898,13.01725087,77.56804174,852
0.001568914,-0.013545394,-2.2186575,0.028657524,0.099408634,0.9891908,13.01725087,77.56804174,852
-0.16616294,-0.0602808,-2.240428,0.028870964,0.10003496,0.98892844,13.01725087,77.56804174,852
-0.11728066,0.003395557,-1.9072523,0.028490113,0.09961947,0.98880595,13.01725087,77.56804174,852
0.31346306,0.040608287,-0.6171417,0.027144901,0.09746492,0.9888399,13.01725087,77.56804174,852
0.60592437,-0.03248346,0.53167343,0.026403671,0.09552822,0.98888624,13.01725087,77.56804174,852
0.715307,-0.05645883,1.1964808,0.026404854,0.09376593,0.9888603,13.01725087,77.56804174,852
0.71734905,-0.053136706,1.1640615,0.02733216,0.09264516,0.98868877,13.01725087,77.56804174,852
0.6000953,0.009332776,0.5106096,0.029099474,0.09230515,0.98837674,13.01725087,77.56804174,852
0.4233845,0.12869513,-0.32398129,0.031341974,0.09244696,0.9879945,13.01725087,77.56804174,852
0.3363199,0.16252303,-0.98841476,0.03372436,0.0923888,0.9876172,13.01725087,77.56804174,852
0.7902723,-0.107054114,-0.2749443,0.03710199,0.09056123,0.98725843,13.01725087,77.56804174,852
1.1879432,-0.41466165,1.2390003,0.03928195,0.088220336,0.98713374,13.01725087,77.56804174,852
1.3072605,-0.5518646,2.432745,0.041545786,0.08596585,0.9869872,13.01725087,77.56804174,852
1.1085004,-0.41145158,2.4846735,0.043746553,0.08486039,0.98673564,13.01725087,77.56804174,852
0.76620257,-0.10943806,1.6453867,0.04558604,0.085424915,0.9863511,13.01725087,77.56804174,852
0.4850455,0.16582334,0.10328102,0.046930313,0.087330714,0.98592925,13.01725087,77.56804174,852
0.28824037,0.19859064,-1.9714556,0.047765236,0.09061167,0.9853928,13.01725087,77.56804174,852
0.33276182,0.21563923,-2.5164738,0.047321994,0.09183709,0.9851841,13.01725087,77.56804174,852
0.5243552,0.036725044,-2.328765,0.046222497,0.09175689,0.9850997,13.01725087,77.56804174,852
0.7174741,-0.2774353,-1.5757151,0.04476256,0.09030439,0.98513174,13.01725087,77.56804174,852
0.8906806,-0.67836225,-0.38045788,0.04326648,0.08776346,0.98520666,13.01725087,77.56804174,852
0.96306497,-0.9326438,0.95941734,0.042155318,0.08474887,0.9852052,13.01725087,77.56804174,852
0.96673703,-1.0181667,1.6957483,0.0418422,0.08196755,0.98506176,13.01725087,77.56804174,852
0.7987095,-1.0338935,1.9054585,0.0423854,0.07989888,0.9847673,13.01725087,77.56804174,852
0.37879145,-0.8796766,1.5545559,0.043409955,0.07895359,0.98438567,13.01725087,77.56804174,852
-0.30096126,-0.40971947,0.31419182,0.045000575,0.079590775,0.98384243,13.01725087,77.56804174,852
-0.118518054,-0.3115425,-0.56046104,0.045826007,0.08063298,0.98361415,13.01725087,77.56804174,852
-0.039332032,-0.095751524,-1.2614775,0.04624871,0.08156365,0.9834759,13.01725087,77.56804174,852
0.001476049,-0.026386857,-1.4983168,0.046017192,0.081944175,0.98343706,13.01725087,77.56804174,852
0.0604015,-0.033205748,-1.2927895,0.044999465,0.08154836,0.98349804,13.01725087,77.56804174,852
-0.07606059,0.043853164,-0.57490444,0.04317056,0.080514215,0.98365074,13.01725087,77.56804174,852
-0.12861437,0.06440389,0.39155483,0.040961046,0.079060666,0.9838315,13.01725087,77.56804174,852
0.17844176,-0.03571117,1.2717199,0.0390511,0.07747579,0.9840414,13.01725087,77.56804174,852
0.4688751,-0.10557318,1.6286001,0.03835732,0.07675096,0.9841382,13.01725087,77.56804174,852
1.4297384,-0.28539538,1.9608326,0.03732479,0.07547084,0.9843212,13.01725087,77.56804174,852
1.5306162,0.28105724,1.4568138,0.03707866,0.07617376,0.9841889,13.01725087,77.56804174,852
1.3230767,0.43564057,1.0711231,0.037035905,0.07680569,0.98410124,13.01725087,77.56804174,852
0.9314828,0.39412546,-0.03810978,0.03682998,0.07908518,0.9837966,13.01725087,77.56804174,852
0.5932661,0.44122505,-0.24436092,0.03663475,0.08050881,0.983568,13.01725087,77.56804174,852
0.4378425,0.30753434,-0.35333252,0.03651231,0.08167804,0.9833554,13.01725087,77.56804174,852
0.40275237,0.053509355,-0.36825848,0.036414288,0.08259816,0.98315746,13.01725087,77.56804174,852
0.37515816,-0.010218978,-0.39713478,0.036340233,0.082991794,0.9830507,13.01725087,77.56804174,852
0.31998274,-0.14197195,-0.6590061,0.03576828,0.08398672,0.98282844,13.01725087,77.56804174,852
0.32416555,-0.22135532,-0.7214947,0.035019,0.08440678,0.9826862,13.01725087,77.56804174,852
0.09997168,-0.23157418,-0.6626053,0.03391522,0.08459297,0.98261434,13.01725087,77.56804174,852
-0.5816637,-0.40333354,-0.50567245,0.031742327,0.08458108,0.98257715,13.01725087,77.56804174,852
-1.0938876,-0.5007622,-0.48051167,0.030350912,0.08447305,0.98263943,13.01725087,77.56804174,852
-1.288667,-0.52072644,-0.49074078,0.029776778,0.08443392,0.98270327,13.01725087,77.56804174,852
-1.1835289,-0.51738644,-0.958704,0.028575689,0.08438919,0.98302424,13.01725087,77.56804174,852
-1.0387026,-0.40429652,-1.1780806,0.02789472,0.08415347,0.98339283,13.01725087,77.56804174,852
-0.58450395,-0.36968184,-1.15376,0.027179925,0.08340119,0.983887,13.01725087,77.56804174,852
-0.20815405,-0.4244591,-1.0617981,0.026486214,0.08196639,0.9844325,13.01725087,77.56804174,852
-0.2916893,-0.5918361,-0.7577944,0.025602188,0.078400195,0.9852641,13.01725087,77.56804174,852
-0.55694294,-0.7361369,-0.17163944,0.025309183,0.07521968,0.9858586,13.01725087,77.56804174,852
-0.5614499,-0.816733,-0.025046349,0.02534339,0.07170121,0.9864915,13.01725087,77.56804174,852
-0.4456867,-0.7865119,0.23020458,0.02533323,0.0699057,0.98681927,13.01725087,77.56804174,852
-0.33826733,-0.529554,0.15579796,0.024785377,0.06467398,0.9878455,13.01725087,77.56804174,852
-0.34708512,-0.46638787,-0.4403057,0.022998221,0.059463672,0.98906344,13.01725087,77.56804174,852
-0.2075181,-0.46037424,-0.5183058,0.022131737,0.057575747,0.9895056,13.01725087,77.56804174,852
0.5164796,-0.51063526,-0.61784077,0.019146435,0.05130927,0.99087983,13.01725087,77.56804174,852
0.85409045,-0.5225897,-0.4066639,0.017028194,0.046729773,0.99176663,13.01725087,77.56804174,852
0.93269855,-0.52602386,-0.3475666,0.016012987,0.044405248,0.9921723,13.01725087,77.56804174,852
0.97600174,-0.6000329,0.15388298,0.012892213,0.037791315,0.9931938,13.01725087,77.56804174,852
0.7816236,-0.6735647,0.22498035,0.010622156,0.0341188,0.993674,13.01725087,77.56804174,852
0.5531984,-0.77039814,0.2365675,0.008165068,0.031127151,0.9940192,13.01725087,77.56804174,852
-0.04219583,-0.8273775,0.20577717,0.004574654,0.027610274,0.9943357,13.01725087,77.56804174,852
-0.15075533,-0.7720686,0.3643322,0.00246502,0.025603961,0.99444574,13.01725087,77.56804174,852
-0.008162472,-0.72895586,0.37350273,4.55E-04,0.023781156,0.99452,13.01725087,77.56804174,852
0.33244404,-0.7486756,0.27756786,-0.001851644,0.022204636,0.99454826,13.01725087,77.56804174,852
0.69682336,-0.7262794,0.7057867,-0.004644609,0.020851929,0.9945432,13.01725087,77.56804174,852
0.6939444,-0.65884364,0.9235449,-0.007460671,0.019590944,0.994472,13.01725087,77.56804174,852
0.22127521,-0.72396576,1.0487423,-0.011359686,0.017551217,0.99430865,13.01725087,77.56804174,852
0.104827255,-0.6951792,1.240056,-0.0125688,0.016854227,0.99424464,13.01725087,77.56804174,852
-0.28422886,-0.2043226,1.7925396,-0.015810648,0.015214549,0.9941034,13.01725087,77.56804174,852
-0.7798276,0.18153474,1.2330542,-0.018397205,0.015251895,0.9940432,13.01725087,77.56804174,852
-0.772535,0.1866723,0.7211628,-0.019154545,0.015678111,0.9940409,13.01725087,77.56804174,852
-0.09019056,0.4074365,-0.9008179,-0.021189962,0.017442089,0.9940756,13.01725087,77.56804174,852
0.28088912,0.7855246,-0.8623953,-0.022728963,0.018396702,0.99410397,13.01725087,77.56804174,852
0.3994532,0.96414214,-0.6158743,-0.023567695,0.018679256,0.9941148,13.01725087,77.56804174,852
0.16205347,1.1591865,0.38189888,-0.026493138,0.019060044,0.9941183,13.01725087,77.56804174,852
-0.4208945,0.9103816,0.8845577,-0.028601203,0.019438827,0.99409217,13.01725087,77.56804174,852
-0.6117721,0.42171675,0.73729706,-0.02996683,0.020189242,0.9940777,13.01725087,77.56804174,852
-0.49490595,0.011184156,-0.038119316,-0.02956528,0.021615436,0.994147,13.01725087,77.56804174,852
-0.2159872,-0.26005867,-0.28070354,-0.02792789,0.022171523,0.9942379,13.01725087,77.56804174,852
0.098956764,-0.5890815,-0.27829742,-0.02604642,0.022225223,0.9943635,13.01725087,77.56804174,852
0.21942425,-0.65103686,0.003610611,-0.024814822,0.021940222,0.99448776,13.01725087,77.56804174,852
0.35150468,-0.52009577,-0.053171158,-0.024561033,0.021497518,0.99460065,13.01725087,77.56804174,852
0.2575214,-0.051598758,-0.33634853,-0.025328789,0.021012766,0.9946665,13.01725087,77.56804174,852
-0.05767405,0.12318906,0.20869827,-0.027430559,0.019899799,0.9947483,13.01725087,77.56804174,852
-0.13569868,0.039060414,0.6683674,-0.027990308,0.01940966,0.9947749,13.01725087,77.56804174,852
0.38179982,0.05595994,1.6973228,-0.027614474,0.018114598,0.99495816,13.01725087,77.56804174,852
0.45343542,-0.10703009,1.4463758,-0.026765486,0.018167708,0.9950134,13.01725087,77.56804174,852
0.45343542,-0.10703009,1.4463758,-0.025683502,0.018375399,0.995062,13.01725087,77.56804174,852
-0.17084894,-0.55747736,0.16419315,-0.02019681,0.020203793,0.9952088,13.01725087,77.56804174,852
-0.40685534,-0.25165635,-0.7682619,-0.018104305,0.021348266,0.9952558,13.01725087,77.56804174,852
-0.3639086,-0.11459777,-1.2319498,-0.017429732,0.021738894,0.9952952,13.01725087,77.56804174,852
0.3111536,-0.006125748,0.011073113,-0.017720537,0.02133416,0.995468,13.01725087,77.56804174,852
0.5569806,0.026249737,1.3436565,-0.01881122,0.020824865,0.99555147,13.01725087,77.56804174,852
0.77622795,-0.065461576,1.8068523,-0.019250222,0.02082823,0.99557847,13.01725087,77.56804174,852
1.2510537,-0.46318814,2.0565424,-0.019459566,0.021608396,0.99558663,13.01725087,77.56804174,852
0.56491417,-0.63125,1.6041794,-0.017132618,0.024936628,0.9954636,13.01725087,77.56804174,852
0.11117974,-0.5594217,1.2602844,-0.01559933,0.026512112,0.99539596,13.01725087,77.56804174,852
-0.24041899,-0.07173276,0.21492863,-0.009432088,0.031670637,0.99519897,13.01725087,77.56804174,852
0.08210126,-0.027325392,0.16874695,-0.002504968,0.036151037,0.99505496,13.01725087,77.56804174,852
0.55490005,-0.26069337,0.3286438,-3.54E-04,0.0373799,0.9950359,13.01725087,77.56804174,852
1.5173475,-0.5991868,0.3336563,0.005030664,0.04077061,0.9949415,13.01725087,77.56804174,852
1.5173475,-0.5991868,0.3336563,0.005030664,0.04077061,0.9949415,13.01725087,77.56804174,852
0.87802035,-0.16770327,0.13128757,0.011783587,0.046288155,0.9945509,13.01725087,77.56804174,852
0.28122604,-0.080708146,0.38761997,0.014738649,0.048586898,0.99430245,13.01725087,77.56804174,852
-0.30071262,-0.19576216,-0.13735104,0.019753493,0.05256443,0.99387175,13.01725087,77.56804174,852
-0.83781993,-0.2142576,-1.3789864,0.022983955,0.055507224,0.99359506,13.01725087,77.56804174,852
-0.71629155,-0.11601102,-2.3139296,0.025144456,0.058308546,0.99341,13.01725087,77.56804174,852
0.45071602,-0.08728826,-1.8279762,0.025688114,0.060516674,0.99335015,13.01725087,77.56804174,852
1.4929764,-0.24211574,-0.5380049,0.025028696,0.06198126,0.9933673,13.01725087,77.56804174,852
1.7999529,-0.46454012,0.35755348,0.02398959,0.0630804,0.99334496,13.01725087,77.56804174,852
1.6589632,-0.5809134,0.5629759,0.02313853,0.0642292,0.99324375,13.01725087,77.56804174,852
0.7629384,-0.6493057,-0.3236103,0.02292706,0.06588676,0.99297416,13.01725087,77.56804174,852
0.2800519,-0.46277845,-1.2715416,0.022889648,0.06675854,0.9927846,13.01725087,77.56804174,852
0.36108744,-0.24130929,-1.7545786,0.022388918,0.06715673,0.99266064,13.01725087,77.56804174,852
0.7593731,-0.3321371,-1.39995,0.021749925,0.06669673,0.99258024,13.01725087,77.56804174,852
0.7219653,-0.3019718,-0.5976753,0.02114813,0.06553339,0.992507,13.01725087,77.56804174,852
0.45744312,-0.17369425,-0.5623369,0.020861689,0.064899355,0.99246955,13.01725087,77.56804174,852
-0.21216273,0.06592715,-1.5559559,0.019754633,0.06305876,0.9923581,13.01725087,77.56804174,852
-0.6395646,0.009801388,-2.0306654,0.017905332,0.060314868,0.9923638,13.01725087,77.56804174,852
-0.6395646,0.009801388,-2.0306654,0.017905332,0.060314868,0.9923638,13.01725087,77.56804174,852
0.05613807,-0.06982565,-0.877697,0.014392171,0.05404126,0.99268323,13.01725087,77.56804174,852
0.8819745,-0.2309457,0.018015862,0.012791337,0.05022039,0.992901,13.01725087,77.56804174,852
0.99496186,0.061422408,1.0763388,0.011419029,0.0463987,0.99308753,13.01725087,77.56804174,852
1.0046204,0.13282228,1.3923454,0.009584546,0.043106902,0.99322534,13.01725087,77.56804174,852
1.3901349,0.25150794,1.8003845,0.006973459,0.040687874,0.99330485,13.01725087,77.56804174,852
1.7647254,0.3051591,1.8589287,0.003285446,0.038248032,0.99332327,13.01725087,77.56804174,852
1.3523068,0.35235894,1.7091742,0.001746937,0.037241466,0.9932483,13.01725087,77.56804174,852
1.3523068,0.35235894,1.7091742,0.001746937,0.037241466,0.9932483,13.01725087,77.56804174,852
-0.61298263,0.42947543,-1.1942034,4.85E-04,0.03751525,0.99274975,13.01706016,77.56804938,857
-0.7757149,0.39682168,-1.8602171,3.11E-04,0.037716806,0.99267596,13.01706016,77.56804938,857
-0.45898646,0.11899406,-2.366744,-5.61E-04,0.037032362,0.9925655,13.01706016,77.56804938,857
0.08488995,-0.022571802,-2.053502,-0.001379388,0.03504737,0.99257404,13.01706016,77.56804938,857
0.4296534,-0.08424854,-1.7802753,-0.001914121,0.033584803,0.9926024,13.01706016,77.56804938,857
0.82191,-0.35424417,-1.0754108,-0.004223831,0.02761521,0.99263984,13.01706016,77.56804938,857
0.88533694,-0.4502062,-0.46718502,-0.006374472,0.022487955,0.99262655,13.01706016,77.56804938,857
0.85954916,-0.557214,0.60623837,-0.008526005,0.016609337,0.99255544,13.01706016,77.56804938,857
0.04408841,-0.399221,2.4091806,-0.010238413,0.007258934,0.99235725,13.01706016,77.56804938,857
0.04408841,-0.399221,2.4091806,-0.010238413,0.007258934,0.99235725,13.01706016,77.56804938,857
-1.0388595,-0.13126795,3.8026829,-0.008535222,-0.003132528,0.9920491,13.01706016,77.56804938,857
-0.9550972,-0.23589024,4.46027,-0.00707783,-0.004966398,0.9919439,13.01706016,77.56804938,857
-1.057192,-0.27159947,4.2947826,-0.006166119,-0.004689799,0.9919152,13.01706016,77.56804938,857
-0.9551574,-0.4927519,1.9034624,-0.002499372,1.51E-04,0.9919264,13.01706016,77.56804938,857
-1.3619802,-0.007906288,0.42242527,0.001713438,0.007863976,0.9919546,13.01706016,77.56804938,857
-1.337695,0.03371267,-0.060022354,0.003187399,0.010503635,0.9919911,13.01706016,77.56804938,857
-1.0909169,-0.19656691,-0.63104343,0.007480918,0.017879376,0.99204654,13.01706016,77.56804938,857
-1.0689508,-0.18638957,-0.4916048,0.010176351,0.022414679,0.9920556,13.01706016,77.56804938,857
-0.71843445,-0.21354938,-0.30003548,0.011490616,0.024623314,0.99205124,13.01706016,77.56804938,857
0.3364002,-0.38609695,-0.6170931,0.016396996,0.0331929,0.99185336,13.01706016,77.56804938,857
-0.11529243,-0.7909449,-1.1337433,0.017757673,0.036963373,0.9916489,13.01706016,77.56804938,857
-0.4344873,-0.9812319,-1.1333857,0.01797116,0.038499013,0.99154884,13.01706016,77.56804938,857
-0.55472577,-1.3647249,-0.17911053,0.017553553,0.04127203,0.99135065,13.01706016,77.56804938,857
0.12087993,-1.0968053,1.0677538,0.017455142,0.042326324,0.9912822,13.01706016,77.56804938,857
0.34027404,-0.92983097,1.2861261,0.017758328,0.04268103,0.99125725,13.01706016,77.56804938,857
1.1416217,-0.36277652,1.2645216,0.019870847,0.044675484,0.99105984,13.01706016,77.56804938,857
1.0322692,-0.27169532,0.527401,0.02181115,0.04691956,0.99079967,13.01706016,77.56804938,857
1.0718899,-0.17615259,0.20229912,0.023434268,0.049618173,0.9904839,13.01706016,77.56804938,857
1.1167047,-0.2833271,-1.047349,0.025016412,0.053751446,0.98995346,13.01706016,77.56804938,857
1.1167047,-0.2833271,-1.047349,0.025016412,0.053751446,0.98995346,13.01706016,77.56804938,857
0.46848303,-0.33587337,-1.7223473,0.024613932,0.05781109,0.9892726,13.01706016,77.56804938,857
0.40769285,-0.35727262,-1.3892488,0.024188379,0.05856699,0.98903894,13.01706016,77.56804938,857
0.5734751,-0.40930617,-1.1291342,0.024155416,0.058627672,0.98893297,13.01706016,77.56804938,857
1.4570999,-0.4437077,-0.15267754,0.025468254,0.058196343,0.9883979,13.01706016,77.56804938,857
1.0044503,-0.29622102,-0.2416668,0.026608841,0.05837465,0.9879422,13.01706016,77.56804938,857
1.0044503,-0.29622102,-0.2416668,0.026608841,0.05837465,0.9879422,13.01706016,77.56804938,857
-0.8438519,0.1547811,-0.67404747,0.027297938,0.060193602,0.98686445,13.01706016,77.56804938,857
-1.1579145,0.21925318,-0.7643938,0.026981167,0.061819833,0.9863613,13.01706016,77.56804938,857
-1.251606,0.32667446,-0.83946323,0.026892459,0.06279447,0.986117,13.01706016,77.56804938,857
-1.4834846,0.7069675,-1.6728516,0.027782273,0.0668876,0.98512846,13.01706016,77.56804938,857
-1.6954293,1.0338565,-2.3132858,0.029375399,0.06790462,0.9846872,13.01706016,77.56804938,857
-1.9179537,1.1024605,-2.5330334,0.030375393,0.06788361,0.9844909,13.01706016,77.56804938,857
-1.7565483,0.3987192,-1.6089363,0.03327583,0.06509511,0.9840538,13.01706016,77.56804938,857
-0.88359207,-0.3247999,0.8038025,0.03628454,0.05829276,0.9838051,13.01706016,77.56804938,857
-0.88359207,-0.3247999,0.8038025,0.03628454,0.05829276,0.9838051,13.01706016,77.56804938,857
-1.0590352,-0.2999096,2.7208948,0.04021944,0.048576627,0.9834863,13.01706016,77.56804938,857
-1.2268786,-0.29330635,2.5336428,0.041764468,0.04575794,0.98335606,13.01706016,77.56804938,857
-1.1541617,-0.27096665,2.3575583,0.042339396,0.04503595,0.9833189,13.01706016,77.56804938,857
-1.019146,-0.14026332,1.185956,0.04324048,0.045271672,0.98327047,13.01706016,77.56804938,857
-1.019146,-0.14026332,1.185956,0.04324048,0.045271672,0.98327047,13.01706016,77.56804938,857
-0.29675305,0.16011894,-1.4002542,0.044924483,0.048216656,0.98331714,13.01706016,77.56804938,857
0.02883631,0.36158442,-1.6213675,0.046350412,0.047829006,0.9832979,13.01706016,77.56804938,857
0.02883631,0.36158442,-1.6213675,0.046350412,0.047829006,0.9832979,13.01706016,77.56804938,857
-0.3448481,-0.41437978,0.055150032,0.04912011,0.04225482,0.9833214,13.01706016,77.56804938,857
-0.6778036,-0.5704552,1.7944984,0.050589018,0.03621871,0.9835048,13.01706016,77.56804938,857
-0.6778036,-0.5704552,1.7944984,0.050589018,0.03621871,0.9835048,13.01706016,77.56804938,857
-0.87111324,-0.28540254,2.3103485,0.050815564,0.031735826,0.9840003,13.01706016,77.56804938,857
-0.7808943,-0.35182315,1.7026625,0.04991235,0.032271788,0.98438066,13.01706016,77.56804938,857
-0.7808943,-0.35182315,1.7026625,0.04991235,0.032271788,0.98438066,13.01706016,77.56804938,857
1.3286377,0.020338893,-1.6795292,0.048185132,0.037583202,0.9853788,13.01706016,77.56804938,857
1.5219646,0.17798078,-2.1898909,0.048317604,0.038257707,0.98552203,13.01706016,77.56804938,857
1.5444994,0.26701438,-2.4159746,0.048594754,0.038549248,0.9856328,13.01706016,77.56804938,857
0.5949716,0.14049214,-0.33759785,0.050811674,0.035957236,0.985946,13.01706016,77.56804938,857
0.06796318,0.015995085,0.64489746,0.052160103,0.033712782,0.98608094,13.01706016,77.56804938,857
-0.16470593,-0.045661986,0.86872673,0.052606158,0.032864753,0.98617387,13.01706016,77.56804938,857
-0.707905,0.03439808,0.63259125,0.05238492,0.032382496,0.9866382,13.01706016,77.56804938,857
-0.707905,0.03439808,0.63259125,0.05238492,0.032382496,0.9866382,13.01706016,77.56804938,857
0.512402,-0.13828689,-1.5783014,0.04810876,0.036369853,0.98790276,13.01706016,77.56804938,857
1.3503764,-0.19657111,-2.0474262,0.045660052,0.037598524,0.9884537,13.01706016,77.56804938,857
1.7832452,-0.18863285,-1.6048908,0.04296945,0.037725855,0.98897576,13.01706016,77.56804938,857
1.5428568,-0.11868751,-0.47087955,0.040596373,0.03662741,0.9894001,13.01706016,77.56804938,857
0.9112646,-0.16130155,0.6282072,0.039154384,0.034841355,0.98971766,13.01706016,77.56804938,857
0.59005105,-0.19787276,1.1138983,0.038963936,0.032581683,0.99005705,13.01706016,77.56804938,857
0.58362937,-0.17835432,0.42314148,0.039339382,0.031972636,0.99024516,13.01706016,77.56804938,857
0.7708637,-0.17500222,-0.5504103,0.0390255,0.03204863,0.99044466,13.01706016,77.56804938,857
0.6585341,-0.11774242,-1.0323677,0.03636473,0.03250125,0.9907843,13.01706016,77.56804938,857
0.28060824,-0.13549048,-0.48163795,0.035070512,0.032496233,0.9909001,13.01706016,77.56804938,857
0.11536431,-0.29500628,0.54801655,0.03232925,0.032235414,0.9911212,13.01706016,77.56804938,857
0.084490955,-0.45259356,1.0285339,0.030988839,0.032079406,0.9912157,13.01706016,77.56804938,857
-0.17178637,-0.9657596,1.7007627,0.025958251,0.03286131,0.99161255,13.01706016,77.56804938,857
-0.24100086,-0.79103684,0.94550514,0.023418538,0.03461411,0.99185276,13.01706016,77.56804938,857
-0.26842776,-0.6174844,0.4175682,0.02198452,0.035850458,0.9919858,13.01706016,77.56804938,857
0.11467357,0.16375357,-1.4883766,0.014435866,0.0423716,0.9925325,13.01706016,77.56804938,857
0.32251906,0.62370807,-1.7313824,0.00965739,0.04575888,0.99277216,13.01706016,77.56804938,857
0.34992787,0.9190827,-1.1741953,0.00466434,0.048676994,0.99293226,13.01706016,77.56804938,857
0.2903903,0.8827595,-0.92449,0.002279506,0.04991165,0.9929913,13.01706016,77.56804938,857
-0.547557,0.053464413,-0.12342644,-0.005704204,0.053630937,0.99306303,13.01706016,77.56804938,857
-0.5294019,-0.07239938,0.13639832,-0.007225833,0.054407008,0.99306977,13.01706016,77.56804938,857
-0.013885379,-0.25808322,0.383049,-0.009785977,0.056075096,0.9930708,13.01706016,77.56804938,857
0.40373158,-0.22163355,-0.46138287,-0.014231517,0.0594094,0.9929587,13.01706016,77.56804938,857
-0.06806928,-0.17914772,-1.2633972,-0.018841458,0.061823476,0.99280673,13.01706016,77.56804938,857
-0.25177157,-0.29610777,-1.95858,-0.0250044,0.06356184,0.9926142,13.01706016,77.56804938,857
-0.3411758,-0.18381298,-1.3574944,-0.03628675,0.06351061,0.9923558,13.01706016,77.56804938,857
-0.51175755,-0.093610644,0.058190346,-0.044027045,0.061710857,0.99220073,13.01706016,77.56804938,857
-0.8855969,-0.22799969,1.581233,-0.047687083,0.060543697,0.9921391,13.01706016,77.56804938,857
-1.3637582,-0.39627707,2.4878063,-0.056853745,0.05760031,0.9919094,13.01706016,77.56804938,857
-0.89850473,-0.5000528,2.0538874,-0.06261297,0.057586856,0.9917144,13.01706016,77.56804938,857
-0.6474986,-0.42233932,1.6117649,-0.06380312,0.05830876,0.99165076,13.01706016,77.56804938,857
-0.3226503,0.080501914,0.14569473,-0.06638809,0.061696265,0.99143237,13.01706016,77.56804938,857
-0.3448243,0.13260365,-0.39769363,-0.068007104,0.06413324,0.9912513,13.01706016,77.56804938,857
-0.6337031,0.11139357,-0.5450716,-0.06964914,0.06613746,0.99107563,13.01706016,77.56804938,857
-0.8069565,-0.09669459,-0.18094063,-0.0711945,0.067602314,0.9909452,13.01706016,77.56804938,857
-0.6549356,-0.32735455,0.22325993,-0.07187893,0.06819502,0.9908998,13.01706016,77.56804938,857
-0.30209947,-0.6086379,1.3556995,-0.07405105,0.07098053,0.99076444,13.01706016,77.56804938,857
-0.81914604,-0.48574185,1.5631752,-0.075239696,0.07332562,0.9906184,13.01706016,77.56804938,857
-0.90936613,-0.47981846,1.4633169,-0.07599905,0.07485532,0.9905239,13.01706016,77.56804938,857
-0.52161145,-0.52924335,0.6549101,-0.07889679,0.08087993,0.9900739,13.01706016,77.56804938,857
0.2162627,-0.40675557,-0.48726273,-0.08220356,0.08768771,0.9894819,13.01706016,77.56804938,857
0.46718967,-0.34323108,-0.8333883,-0.08328612,0.08972226,0.9892788,13.01706016,77.56804938,857
0.6398486,-0.111305594,-1.5268593,-0.08611532,0.094100334,0.9887576,13.01706016,77.56804938,857
0.10959458,-0.32213902,0.32549477,-0.08735767,0.09482171,0.9885813,13.01706016,77.56804938,857
-0.60323083,-0.6906837,2.8217535,-0.086855315,0.093707144,0.9886595,13.01706016,77.56804938,857
-0.96971893,-0.6395136,3.6967793,-0.08636886,0.09400695,0.9886456,13.01706016,77.56804938,857
-0.6128541,-0.5846435,2.9194164,-0.08598189,0.09594628,0.9885264,13.01706016,77.56804938,857
0.04428947,-0.41974962,1.0348854,-0.085907094,0.09930948,0.9882682,13.01706016,77.56804938,857
0.76964545,-0.3393352,-0.4161911,-0.0866001,0.103292316,0.9879087,13.01706016,77.56804938,857
0.69967735,0.25742078,-3.1176977,-0.09019484,0.10904741,0.9871162,13.01706016,77.56804938,857
0.69967735,0.25742078,-3.1176977,-0.09019484,0.10904741,0.9871162,13.01706016,77.56804938,857
0.021221876,0.43921375,-1.4505949,-0.097950675,0.11341111,0.9860404,13.01706016,77.56804938,857
-0.5026579,0.4629016,-1.8293657,-0.101000436,0.11482278,0.9856278,13.01706016,77.56804938,857
-0.5026579,0.4629016,-1.8293657,-0.101000436,0.11482278,0.9856278,13.01706016,77.56804938,857
0.65051794,0.36814332,-1.2520933,-0.1041292,0.11644348,0.985191,13.01706016,77.56804938,857
0.65051794,0.36814332,-1.2520933,-0.1041292,0.11644348,0.985191,13.01706016,77.56804938,857
-0.7655139,-0.05949402,1.2391348,-0.10223168,0.117066756,0.98517054,13.01706016,77.56804938,857
-1.921242,-0.020226002,2.2041893,-0.09862383,0.11786079,0.98531526,13.01706016,77.56804938,857
-2.763781,-0.24153948,0.5806961,-0.090069085,0.12030508,0.98571706,13.01706016,77.56804938,857
-2.034438,-0.54790425,-1.8658934,-0.08347322,0.12187451,0.9860967,13.01706016,77.56804938,857
-1.068801,-0.9134176,-2.9529276,-0.07743993,0.121891,0.98663026,13.01706016,77.56804938,857
-0.19408798,-1.1238513,-1.6380701,-0.072624266,0.119596034,0.98735064,13.01706016,77.56804938,857
-0.019436717,-1.0909879,-0.5349245,-0.0706841,0.11776078,0.98773795,13.01706016,77.56804938,857
-0.54916847,-0.6180334,1.9514933,-0.06556167,0.1101256,0.9889955,13.01706016,77.56804938,857
-1.2696366,-0.36918187,1.6701374,-0.06443745,0.108186476,0.9892849,13.01706016,77.56804938,857
-1.62159,-0.11226416,0.7902441,-0.06351336,0.10757544,0.9894419,13.01706016,77.56804938,857
-1.3375657,0.22973537,-0.12164402,-0.062131654,0.1075086,0.98959553,13.01706016,77.56804938,857
-0.3435794,0.5694225,-0.95260334,-0.059285123,0.10707771,0.9899351,13.01706016,77.56804938,857
0.17965055,0.48848212,-0.99181557,-0.0575885,0.10613472,0.9902052,13.01706016,77.56804938,857
0.22481644,0.4063171,-0.80126953,-0.056952845,0.10545708,0.9903414,13.01706016,77.56804938,857
-0.17573202,0.46902943,-0.13257408,-0.05604803,0.10311915,0.99069613,13.01706016,77.56804938,857
-0.30303192,0.5187969,0.26799488,-0.056051757,0.10238828,0.99078053,13.01706016,77.56804938,857
-0.30303192,0.5187969,0.26799488,-0.056051757,0.10238828,0.99078053,13.01706016,77.56804938,857
-0.41650736,-0.18173957,-0.2445631,-0.055861883,0.09927494,0.991029,13.01706016,77.56804938,857
-0.63776374,-0.26554132,-0.19655418,-0.055744454,0.09870889,0.99106026,13.01706016,77.56804938,857
-1.1234047,-0.2719512,0.49563026,-0.054838456,0.0964861,0.99122053,13.01706016,77.56804938,857
-1.1705302,-0.36806738,0.8146343,-0.053930007,0.0949857,0.9913493,13.01706016,77.56804938,857
-1.2500821,-0.60482156,0.7062063,-0.052965198,0.09377142,0.9914714,13.01706016,77.56804938,857
-1.1769145,-0.6629003,0.24670506,-0.05151344,0.09261951,0.9916608,13.01706016,77.56804938,857
-1.1769145,-0.6629003,0.24670506,-0.05151344,0.09261951,0.9916608,13.01706016,77.56804938,857
-0.47092402,-0.5599328,-0.41870022,-0.04938811,0.09143487,0.9919647,13.01706016,77.56804938,857
-0.47092402,-0.5599328,-0.41870022,-0.04938811,0.09143487,0.9919647,13.01706016,77.56804938,857
1.0499451,-1.1304499,0.45149136,-0.046457827,0.08556067,0.9927891,13.01706016,77.56804938,857
0.7003461,-1.0194641,1.3218651,-0.04681188,0.0824028,0.99309695,13.01706016,77.56804938,857
0.7003461,-1.0194641,1.3218651,-0.04681188,0.0824028,0.99309695,13.01706016,77.56804938,857
0.29553628,-0.32124054,1.9940786,-0.050059263,0.07782657,0.99354297,13.01706016,77.56804938,857
0.44961596,-0.28760564,1.7079391,-0.050522756,0.07776226,0.9935769,13.01706016,77.56804938,857
0.5493183,-0.22742414,1.389679,-0.050791923,0.077954374,0.99359834,13.01706016,77.56804938,857
0.5014185,0.13078797,0.33640862,-0.05016653,0.079543985,0.99363416,13.01706016,77.56804938,857
0.8088813,0.47176528,-0.32865524,-0.0467405,0.08143246,0.99373823,13.01706016,77.56804938,857
0.9364196,0.6053623,-0.84298706,-0.04265156,0.082331605,0.99385995,13.01706016,77.56804938,857
0.752667,0.5173415,-1.1133022,-0.0375026,0.08283659,0.9940024,13.01706016,77.56804938,857
0.6016576,0.25066173,-1.0403061,-0.02843671,0.08286408,0.9942297,13.01706016,77.56804938,857
0.68745255,0.119730234,-1.054986,-0.022033805,0.08227444,0.9943817,13.01706016,77.56804938,857
0.52582294,-0.02458489,-0.806962,-0.016138412,0.08098401,0.99453026,13.01706016,77.56804938,857
0.24110308,-0.35250175,-0.3343048,-0.008907013,0.07765673,0.9947752,13.01706016,77.56804938,857
0.33454254,-0.37222433,0.57510185,-0.00709036,0.07629155,0.99486095,13.01706016,77.56804938,857
0.39355302,-0.38644934,0.8267336,-0.004307089,0.073536485,0.9950277,13.01706016,77.56804938,857
-0.8695177,-0.20751429,0.09445381,-5.18E-04,0.06870317,0.9953029,13.01706016,77.56804938,857
-1.2128414,-0.124605894,-0.4089899,0.001440772,0.06610942,0.995461,13.01706016,77.56804938,857
-1.0610036,-0.16086936,-0.45039463,0.00246741,0.064652175,0.9955656,13.01706016,77.56804938,857
-0.6450251,0.049476743,-0.4396906,0.004558365,0.061413117,0.9958,13.01706016,77.56804938,857
0.015464008,-0.19026113,-0.4370613,0.007740531,0.055300742,0.99629766,13.01706016,77.56804938,857
0.4884361,-0.7061975,-0.17379856,0.009910112,0.05047558,0.9966918,13.01706016,77.56804938,857
0.4884361,-0.7061975,-0.17379856,0.011012564,0.048031677,0.9968897,13.01706016,77.56804938,857
0.57331294,-0.23632073,0.17773628,0.014410844,0.04155065,0.9973392,13.01706016,77.56804938,857
0.54095584,0.071835876,-0.03191471,0.016618142,0.038345814,0.9975373,13.01706016,77.56804938,857
0.54095584,0.071835876,-0.03191471,0.016618142,0.038345814,0.9975373,13.01706016,77.56804938,857
0.7229637,0.075743675,-0.89041233,0.021366587,0.03356909,0.997719,13.01706016,77.56804938,857
0.35402578,0.111581445,-0.7801409,0.025016202,0.029822206,0.99774957,13.01706016,77.56804938,857
0.067557216,0.2586879,-0.38050652,0.02747345,0.027500493,0.9977396,13.01706016,77.56804938,857
-0.056046307,0.31848407,-0.31392097,0.028633414,0.026646761,0.9977239,13.01706016,77.56804938,857
0.12955844,0.03456682,-0.22508907,0.03173888,0.026323205,0.9976098,13.01706016,77.56804938,857
0.111477256,-0.15510422,-0.49912643,0.032208208,0.027712397,0.99752647,13.01706016,77.56804938,857
0.007045567,-0.25322652,-0.6475525,0.032254502,0.028552191,0.9974804,13.01706016,77.56804938,857
-0.07376391,-0.59512055,-0.6267195,0.032500073,0.030535894,0.9973585,13.01706016,77.56804938,857
0.1585657,-0.66400284,0.00949955,0.033815946,0.030651806,0.9972591,13.01706016,77.56804938,857
0.18095744,-0.61959845,0.25809097,0.034522098,0.030258918,0.9972277,13.01706016,77.56804938,857
0.28184068,-0.48704726,0.7797146,0.03701297,0.028506061,0.99713707,13.01706016,77.56804938,857
0.13332039,-0.45876795,0.7318144,0.038581718,0.02749742,0.99707496,13.01706016,77.56804938,857
-0.04802674,-0.38343042,0.66533566,0.03929773,0.027173674,0.9970414,13.01706016,77.56804938,857
-0.7862667,-0.02996564,0.39848137,0.04122878,0.02708662,0.9969475,13.01706016,77.56804938,857
-0.98392475,0.03864348,0.030635834,0.042144295,0.027735298,0.99692357,13.01706016,77.56804938,857
-0.97599417,-0.12505317,-0.34866238,0.042503465,0.028719455,0.9969426,13.01706016,77.56804938,857
